time,seconds_elapsed,z,y,x
1788893102237826800,0.150826904296875,0.39606189727783203,-0.2771759033203125,-0.3336138129234314
1788893102247842600,0.160842529296875,0.37782764434814453,0.03554856777191162,-0.23801806569099426
1788893102257858600,0.170858642578125,0.2573204040527344,0.06316447257995605,0.00844360888004303
1788893102267875000,0.180875,0.014616012573242188,0.06711757183074951,0.3518660068511963
1788893102277891800,0.190891845703125,-0.1683359146118164,0.14589929580688477,0.698167622089386
1788893102287909600,0.20090966796875,-0.26595401763916016,0.28149688243865967,0.5853255391120911
1788893102297928200,0.21092822265625,-0.3873023986816406,0.3006671667098999,0.25474488735198975
1788893102307947500,0.220947509765625,-0.549036979675293,0.09696054458618164,0.052305757999420166
1788893102317968000,0.2309677734375,-0.7625370025634766,-0.17008495330810547,-0.11168128252029419
1788893102327989000,0.240989013671875,-1.0613279342651367,-0.17267847061157227,-0.4038504958152771
1788893102338011100,0.25101123046875,-1.3390932083129883,0.02253425121307373,-0.6357972621917725
1788893102348034000,0.261033935546875,-1.4507875442504883,0.15154433250427246,-0.631919264793396
1788893102358057700,0.2710576171875,-1.3754281997680664,0.23978209495544434,-0.46087342500686646
1788893102368082000,0.28108203125,-1.0778388977050781,0.30498313903808594,-0.22719192504882812
1788893102378106400,0.2911064453125,-0.7044887542724609,0.4681684970855713,-0.09442812204360962
1788893102388131300,0.30113134765625,-0.4123191833496094,0.691281795501709,-0.062307775020599365
1788893102398156300,0.31115625,-0.1592845916748047,0.6932957172393799,0.05393052101135254
1788893102408180700,0.3211806640625,-0.09723472595214844,0.4856112003326416,0.11230605840682983
1788893102418201900,0.331201904296875,-0.2537956237792969,0.3176180124282837,-0.0422588586807251
1788893102428223000,0.341222900390625,-0.5421924591064453,0.14399027824401855,-0.192166268825531
1788893102438241300,0.3512412109375,-0.7279443740844727,-0.01903247833251953,-0.2745509147644043
1788893102448260000,0.361260009765625,-0.6263198852539062,0.0642695426940918,-0.4121381640434265
1788893102458279000,0.37127880859375,-0.09905147552490234,0.19449281692504883,-0.3890542984008789
1788893102468298200,0.38129833984375,0.5444602966308594,0.29624736309051514,-0.3413318395614624
1788893102478317800,0.39131787109375,1.1168231964111328,0.3309180736541748,-0.1870865821838379
1788893102488338000,0.401337890625,1.3527555465698242,0.38266265392303467,0.09824401140213013
1788893102498358500,0.411358642578125,1.156179428100586,0.39055538177490234,0.4582544267177582
1788893102508379600,0.421379638671875,0.6973333358764648,0.3019000291824341,0.7177216410636902
1788893102518401300,0.4314013671875,0.191558837890625,0.1492910385131836,0.738681972026825
1788893102528423200,0.441423095703125,-0.06827259063720703,-0.07804560661315918,0.5638350248336792
1788893102538445600,0.451445556640625,-0.0012979507446289062,-0.17797160148620605,0.3795061707496643
1788893102548468200,0.46146826171875,0.3326101303100586,-0.015863656997680664,0.46455979347229004
1788893102558491100,0.4714912109375,0.8478822708129883,0.13360929489135742,0.6243821382522583
1788893102568514300,0.481514404296875,1.307795524597168,0.17618727684020996,1.0688713788986206
1788893102578537500,0.491537353515625,1.5560684204101562,0.2498188018798828,1.5060226917266846
1788893102588566000,0.50156591796875,1.4818172454833984,0.39693713188171387,1.7134475708007812
1788893102598582300,0.511582275390625,1.0603389739990234,0.49662232398986816,1.7730375528335571
1788893102608598800,0.521598876953125,0.46773529052734375,0.407764196395874,1.6575443744659424
1788893102618615600,0.531615478515625,-0.01651477813720703,0.1559293270111084,1.393918752670288
1788893102628632800,0.5416328125,-0.36270904541015625,-0.12791180610656738,0.9947935342788696
1788893102638651000,0.55165087890625,-0.5465211868286133,-0.3359200954437256,0.5772499442100525
1788893102648669700,0.561669677734375,-0.539093017578125,-0.47055506706237793,0.287431925535202
1788893102658689000,0.57168896484375,-0.29784488677978516,-0.6666843891143799,0.22733235359191895
1788893102668709600,0.581709716796875,0.10216808319091797,-0.7987246513366699,0.1830461025238037
1788893102678730800,0.591730712890625,0.41884708404541016,-0.7665426731109619,0.11308982968330383
1788893102688752600,0.601752685546875,0.4805946350097656,-0.7192666530609131,0.036224365234375
1788893102698775300,0.611775390625,0.3068399429321289,-0.7356936931610107,0.02066659927368164
1788893102708798700,0.621798828125,-0.09777259826660156,-0.737680196762085,0.028384476900100708
1788893102718822700,0.63182275390625,-0.39507007598876953,-0.6947634220123291,-0.11714127659797668
1788893102728846800,0.641846923828125,-0.5633907318115234,-0.63916015625,-0.18296805024147034
1788893102738871300,0.651871337890625,-0.5535211563110352,-0.5050239562988281,-0.2226683497428894
1788893102748896000,0.66189599609375,-0.5197439193725586,-0.26701951026916504,0.37137162685394287
1788893102758920400,0.67192041015625,-0.45438575744628906,0.48392367362976074,2.6076107025146484
1788893102768941800,0.68194189453125,0.36721038818359375,0.8155813217163086,2.6808598041534424
1788893102778960100,0.691960205078125,0.84149169921875,0.5810136795043945,2.5900795459747314
1788893102788978700,0.701978759765625,0.3056612014770508,-0.10600996017456055,2.3137829303741455
1788893102798997800,0.711997802734375,-0.2211465835571289,-0.5324201583862305,1.6621079444885254
1788893102809016800,0.722016845703125,-0.17883872985839844,-0.7037079334259033,1.1607646942138672
1788893102819036700,0.73203662109375,0.07931804656982422,-0.7192840576171875,0.8875032663345337
1788893102829056800,0.742056884765625,0.12073135375976562,-0.5680105686187744,0.5807842016220093
1788893102839077400,0.752077392578125,0.0006113052368164062,-0.37914204597473145,0.40224528312683105
1788893102849098500,0.762098388671875,-0.17461395263671875,-0.3784151077270508,0.614720344543457
1788893102859120000,0.7721201171875,-0.026020050048828125,-0.4570159912109375,0.7950732111930847
1788893102869142000,0.78214208984375,-0.010399818420410156,-0.11074614524841309,0.6449596881866455
1788893102879164400,0.792164306640625,0.0682525634765625,-0.009247064590454102,0.8812562227249146
1788893102889187000,0.80218701171875,0.06253337860107422,-0.17784714698791504,0.965041995048523
1788893102899210000,0.8122099609375,-0.1820220947265625,-0.17924070358276367,0.7204247713088989
1788893102909233200,0.822233154296875,-0.07659149169921875,-0.12093710899353027,0.375344455242157
1788893102919256300,0.83225634765625,0.4540290832519531,-0.1705164909362793,-0.09333337098360062
1788893102929284900,0.842284912109375,0.8786611557006836,-0.3012051582336426,-0.533990740776062
1788893102939301000,0.852301025390625,1.4614543914794922,-0.4218769073486328,-0.7488743662834167
1788893102949318000,0.86231787109375,1.819925308227539,-0.462369441986084,-0.6300644874572754
1788893102959334700,0.872334716796875,2.040281295776367,-0.21482276916503906,-0.0038395822048187256
1788893102969352200,0.882352294921875,2.043701171875,0.2219085693359375,0.7809652090072632
1788893102979370200,0.892370361328125,1.3466978073120117,0.45054101943969727,1.5308867692947388
1788893102989389000,0.90238916015625,0.7903709411621094,0.5131916999816895,1.9369220733642578
1788893102999408600,0.91240869140625,0.40618419647216797,0.6637349128723145,1.8522982597351074
1788893103009429000,0.922428955078125,0.09808158874511719,0.6521096229553223,1.3353314399719238
1788893103019450400,0.932450439453125,-0.1388072967529297,0.4535255432128906,0.8798437118530273
1788893103029472300,0.94247216796875,-0.2900247573852539,0.2239384651184082,0.5339072942733765
1788893103039495200,0.9524951171875,-0.49779796600341797,0.03168845176696777,0.31966546177864075
1788893103049518600,0.9625185546875,-0.7420320510864258,-0.2453768253326416,0.27248042821884155
1788893103059542300,0.972542236328125,-0.9084758758544922,-0.5865776538848877,0.25595563650131226
1788893103069566700,0.982566650390625,-0.8368635177612305,-1.0005230903625488,0.2853690981864929
1788893103079591200,0.992591064453125,-0.6479511260986328,-1.2877635955810547,0.1385785937309265
1788893103089616000,1.002615966796875,-0.5178909301757812,-1.4213628768920898,-0.06588515639305115
1788893103099639800,1.012639892578125,-0.483795166015625,-1.4882469177246094,-0.23394358158111572
1788893103109661000,1.022660888671875,-0.4925651550292969,-1.5032496452331543,-0.2872772812843323
1788893103119682000,1.03268212890625,-0.4634418487548828,-1.500288724899292,-0.27946004271507263
1788893103129700600,1.04270068359375,-0.3545351028442383,-1.556009292602539,-0.11213940382003784
1788893103139719200,1.05271923828125,-0.06287193298339844,-1.5812530517578125,0.07493279874324799
1788893103149738000,1.062738037109375,0.3098306655883789,-1.5543835163116455,0.14004409313201904
1788893103159757300,1.07275732421875,0.677337646484375,-1.529357671737671,0.09321121126413345
1788893103169777000,1.08277685546875,0.921626091003418,-1.5201783180236816,0.019488617777824402
1788893103179797200,1.09279736328125,0.8268423080444336,-1.6007204055786133,-0.09717324376106262
1788893103189817900,1.10281787109375,0.3314180374145508,-1.6578056812286377,-0.3489043712615967
1788893103199839000,1.1128388671875,-0.26538848876953125,-1.6554319858551025,-0.5262340307235718
1788893103209860400,1.1228603515625,-0.8475675582885742,-1.5389721393585205,-0.6996883153915405
1788893103219882500,1.132882568359375,-1.4055862426757812,-1.4884521961212158,-0.819699227809906
1788893103229905000,1.14290478515625,-1.916642665863037,-1.374692678451538,-1.0847461223602295
1788893103239927600,1.152927490234375,-2.31595516204834,-1.2267100811004639,-1.4039525985717773
1788893103249950500,1.162950439453125,-2.525026321411133,-1.1824119091033936,-1.5967752933502197
1788893103259973600,1.1729736328125,-2.6078009605407715,-1.1460721492767334,-1.781243085861206
1788893103269996800,1.182996826171875,-2.7506117820739746,-1.0420374870300293,-2.0056281089782715
1788893103280025600,1.193025634765625,-2.9720921516418457,-0.9987053871154785,-2.084146499633789
1788893103290041900,1.203041748046875,-3.2150487899780273,-1.0102789402008057,-1.9921287298202515
1788893103300058400,1.213058349609375,-3.446356773376465,-0.9990363121032715,-1.9144976139068604
1788893103310075100,1.2230751953125,-3.6429219245910645,-0.9740555286407471,-1.8363265991210938
1788893103320092700,1.2330927734375,-3.6630301475524902,-0.9254546165466309,-1.7997149229049683
1788893103330110700,1.24311083984375,-3.427550792694092,-0.9496517181396484,-1.7183806896209717
1788893103340129300,1.25312939453125,-2.999730110168457,-1.0193636417388916,-1.553750991821289
1788893103350148900,1.26314892578125,-2.5180296897888184,-0.9942033290863037,-1.4445991516113281
1788893103360169200,1.273169189453125,-2.134444236755371,-0.8200249671936035,-1.303877592086792
1788893103370190600,1.283190673828125,-1.843489170074463,-0.7038748264312744,-1.0682775974273682
1788893103380212500,1.29321240234375,-1.5920500755310059,-0.5929782390594482,-0.7730786204338074
1788893103390235100,1.303235107421875,-1.3270959854125977,-0.42008399963378906,-0.40913742780685425
1788893103400258600,1.313258544921875,-0.9816274642944336,-0.22322940826416016,-0.07672399282455444
1788893103410282500,1.323282470703125,-0.5889463424682617,-0.1680433750152588,0.1938149780035019
1788893103420306700,1.333306640625,-0.22027587890625,-0.15259528160095215,0.29826563596725464
1788893103430331100,1.3433310546875,0.06768608093261719,-0.0898904800415039,0.17952817678451538
1788893103440355800,1.35335595703125,0.2942037582397461,-0.04665112495422363,-0.03859952837228775
1788893103450377700,1.363377685546875,0.49718284606933594,-0.15184593200683594,-0.232863187789917
1788893103460399600,1.373399658203125,0.6240310668945312,-0.3344552516937256,-0.36682212352752686
1788893103470421800,1.383421875,0.7128067016601562,-0.5102744102478027,-0.406602144241333
1788893103480449300,1.39344921875,0.867767333984375,-0.6911427974700928,-0.3601346015930176
1788893103490465300,1.40346533203125,0.9118986129760742,-0.6184968948364258,-0.27166369557380676
1788893103500481500,1.4134814453125,-2.5532450675964355,-0.894874095916748,2.232556104660034
1788893103510498300,1.423498291015625,-6.704667091369629,-1.3464562892913818,4.963267803192139
1788893103520515600,1.433515625,-1.0849933624267578,-1.3762469291687012,1.8560503721237183
1788893103530533400,1.443533447265625,0.9214458465576172,-1.2347960472106934,1.9957228899002075
1788893103540552000,1.453552001953125,-1.2752013206481934,-1.1123106479644775,2.3155338764190674
1788893103550571500,1.463571533203125,-1.8252477645874023,-0.5591809749603271,2.7349982261657715
1788893103560592000,1.473591796875,3.19503116607666,0.38071680068969727,3.401599407196045
1788893103570613000,1.483613037109375,0.5208187103271484,1.5756523609161377,3.3669910430908203
1788893103580635100,1.49363525390625,-0.9969820976257324,2.0381507873535156,3.291198492050171
1788893103590658000,1.503657958984375,-0.7763071060180664,2.0019330978393555,2.968841552734375
1788893103600681500,1.513681396484375,-0.2671670913696289,1.730067253112793,2.336320638656616
1788893103610705700,1.52370556640625,-0.7685728073120117,1.3158528804779053,1.6735914945602417
1788893103620730400,1.53373046875,-1.0888257026672363,0.7962565422058105,1.0052201747894287
1788893103630755000,1.543755126953125,-1.674220085144043,0.34525513648986816,1.0526587963104248
1788893103640780000,1.553780029296875,-1.702162265777588,0.33652567863464355,0.816021203994751
1788893103650804200,1.56380419921875,-1.8985276222229004,0.563051700592041,0.1986246109008789
1788893103660825300,1.573825439453125,-2.0665040016174316,0.38724374771118164,-0.7136173248291016
1788893103670844000,1.583843994140625,-1.7513842582702637,-0.10873770713806152,-1.2080812454223633
1788893103680862700,1.59386279296875,0.8141946792602539,-1.0962741374969482,-1.6281895637512207
1788893103690881500,1.603881591796875,0.0051631927490234375,-1.339566946029663,-0.9778008460998535
1788893103700900900,1.61390087890625,-0.18939876556396484,-1.3295619487762451,-0.3403596878051758
1788893103710920700,1.623920654296875,-0.2145090103149414,-1.29636549949646,-0.0636289119720459
1788893103720940800,1.63394091796875,-0.42856884002685547,-1.103928565979004,-0.38870906829833984
1788893103730961700,1.643961669921875,-0.4765505790710449,-0.9093031883239746,-0.45407605171203613
1788893103740982800,1.653982666015625,0.011709213256835938,-0.8003876209259033,-0.1586902141571045
1788893103751004400,1.66400439453125,-0.12660503387451172,-0.44307684898376465,0.1488502025604248
1788893103761026300,1.6740263671875,0.5800027847290039,0.37360191345214844,-0.4133951663970947
1788893103771048700,1.684048583984375,1.650080680847168,0.7691709995269775,-1.4474458694458008
1788893103781071400,1.6940712890625,2.327895164489746,0.35262393951416016,-1.784905195236206
1788893103791094500,1.704094482421875,2.112844467163086,-0.4697113037109375,-1.0731720924377441
1788893103801117400,1.714117431640625,1.106344223022461,-1.0107028484344482,0.36539769172668457
1788893103811140900,1.724140869140625,0.6805353164672852,-1.4596776962280273,0.6142346858978271
1788893103821169400,1.73416943359375,0.784174919128418,-1.780226230621338,-0.3738574981689453
1788893103831185700,1.744185546875,0.9526023864746094,-1.8285534381866455,-0.8507657051086426
1788893103841202200,1.7542021484375,1.0694808959960938,-1.50819993019104,-0.9532325267791748
1788893103851219000,1.764218994140625,0.8314933776855469,-1.1239330768585205,-1.1156466007232666
1788893103861236200,1.774236328125,0.7185592651367188,-0.6978335380554199,-1.288597583770752
1788893103871254000,1.78425390625,0.9587688446044922,-1.155876636505127,-1.2409851551055908
1788893103881272800,1.79427294921875,0.7737131118774414,-0.8101320266723633,-1.0348234176635742
1788893103891292400,1.80429248046875,0.7403335571289062,-0.2534618377685547,-0.7438473701477051
1788893103901312800,1.814312744140625,0.7414627075195312,0.036377906799316406,0.0323023796081543
1788893103911334100,1.824334228515625,0.6502628326416016,0.12163782119750977,0.36806535720825195
1788893103921356300,1.834356201171875,0.5005269050598145,-0.09412813186645508,0.6217021942138672
1788893103931379000,1.84437890625,0.5883264541625977,-0.24976158142089844,0.6836841106414795
1788893103941402400,1.85440234375,0.6966471672058105,-0.340665340423584,0.6233129501342773
1788893103951426600,1.864426513671875,0.7758398056030273,-0.23116493225097656,0.4960312843322754
1788893103961451000,1.874450927734375,1.0375843048095703,-0.30870485305786133,0.02161121368408203
1788893103971475700,1.884475830078125,1.28187894821167,-0.3772459030151367,-0.4473285675048828
1788893103981500400,1.89450048828125,1.2717204093933105,-0.31792354583740234,-0.5373921394348145
1788893103991524900,1.90452490234375,1.2687878608703613,-0.23204803466796875,-0.4861283302307129
1788893104001546000,1.9145458984375,1.0403122901916504,-0.31252002716064453,-1.0717439651489258
1788893104011564500,1.924564453125,0.8795475959777832,-0.4040541648864746,-0.8438529968261719
1788893104021583000,1.9345830078125,0.9298229217529297,-0.44245243072509766,-0.3569812774658203
1788893104031602200,1.944602294921875,1.11979341506958,-0.25985050201416016,0.3068089485168457
1788893104041621500,1.95462158203125,0.3226661682128906,0.06108856201171875,0.861630916595459
1788893104051641300,1.964641357421875,-0.006229400634765625,0.5196905136108398,0.8761484622955322
1788893104061661400,1.974661376953125,0.42537927627563477,0.8575272560119629,1.1952173709869385
1788893104071682000,1.98468212890625,2.2976436614990234,0.22779321670532227,1.4708788394927979
1788893104081703200,1.994703125,1.1742300987243652,0.4823615550994873,1.491119146347046
1788893104091724800,2.004724853515625,-0.3339729309082031,0.2585470676422119,1.1624674797058105
1788893104101747000,2.014746826171875,-0.38666629791259766,0.06443572044372559,1.616419792175293
1788893104111769300,2.024769287109375,-0.5228400230407715,0.10640668869018555,1.2843365669250488
1788893104121792000,2.0347919921875,-1.079254150390625,0.2967343330383301,1.3719618320465088
1788893104131815000,2.04481494140625,-1.0397934913635254,0.5179572105407715,1.4359829425811768
1788893104141838000,2.054838134765625,-1.1531548500061035,0.7670266628265381,1.765730857849121
1788893104151861200,2.064861328125,-0.9579668045043945,0.9678118228912354,1.8002028465270996
1788893104161890000,2.07489013671875,-1.2670421600341797,0.7993748188018799,1.8406133651733398
1788893104171906600,2.084906494140625,-1.1036310195922852,0.763418436050415,2.1932907104492188
1788893104181923000,2.094923095703125,-0.847811222076416,0.7634916305541992,2.3191165924072266
1788893104191940000,2.104940185546875,-0.3832721710205078,0.7256388664245605,2.1697163581848145
1788893104201957600,2.11495751953125,0.3187236785888672,0.7889115810394287,1.3711082935333252
1788893104211975700,2.1249755859375,-0.07646894454956055,0.662818431854248,1.1812200546264648
1788893104221994500,2.134994384765625,-0.772240161895752,0.4038529396057129,1.5211889743804932
1788893104232014000,2.14501416015625,-0.7668881416320801,0.3685159683227539,1.386852741241455
1788893104242034700,2.15503466796875,-0.41126012802124023,0.3184683322906494,1.7756762504577637
1788893104252055800,2.165055908203125,0.2071843147277832,0.3074207305908203,1.1136798858642578
1788893104262078000,2.175077880859375,0.9849238395690918,-0.09001851081848145,0.3217754364013672
1788893104272100900,2.185100830078125,1.5657744407653809,-0.45777297019958496,0.17565536499023438
1788893104282124300,2.195124267578125,1.008284568786621,-0.6171436309814453,0.18657350540161133
1788893104292148200,2.205148193359375,0.3938326835632324,-0.9281115531921387,1.0873017311096191
1788893104302172400,2.21517236328125,-0.3227696418762207,-1.3152458667755127,2.8558125495910645
1788893104312197000,2.225197021484375,-0.5502071380615234,-1.3309857845306396,2.924530506134033
1788893104322221800,2.235221923828125,-0.4573993682861328,-1.0494866371154785,2.283456802368164
1788893104332245800,2.245245849609375,-0.4220852851867676,-0.8901848793029785,1.504131555557251
1788893104342267100,2.25526708984375,0.1371598243713379,-0.5494813919067383,-0.1372814178466797
1788893104352285400,2.265285400390625,0.6389985084533691,-0.4116673469543457,-1.5915098190307617
1788893104362304300,2.27530419921875,0.4689154624938965,-0.5833926200866699,-2.0793447494506836
1788893104372323000,2.285322998046875,0.6576261520385742,-0.42696166038513184,-1.4375758171081543
1788893104382342400,2.29534228515625,1.111438274383545,-0.6988520622253418,-1.1405210494995117
1788893104392362200,2.3053623046875,0.7576618194580078,-1.105499267578125,-1.240044116973877
1788893104402382300,2.31538232421875,1.058645248413086,-1.4698567390441895,-1.6747150421142578
1788893104412403200,2.3254033203125,1.6212644577026367,-1.9049291610717773,-1.7241005897521973
1788893104422424300,2.33542431640625,1.9840798377990723,-2.4099674224853516,-2.0814132690429688
1788893104432446000,2.345446044921875,2.4379239082336426,-2.4844613075256348,-2.1414356231689453
1788893104442467800,2.3554677734375,3.328765392303467,-2.429704189300537,-1.7021632194519043
1788893104452490200,2.365490234375,3.459728240966797,-2.428990364074707,-1.7822918891906738
1788893104462513200,2.37551318359375,2.6982007026672363,-2.6037192344665527,-1.715773582458496
1788893104472536000,2.3855361328125,1.8310155868530273,-2.6980271339416504,-1.7060432434082031
1788893104482559200,2.395559326171875,1.218797206878662,-2.4984331130981445,-1.7995500564575195
1788893104492582700,2.405582763671875,0.6560921669006348,-2.107830047607422,-1.6800241470336914
1788893104502611200,2.415611083984375,-0.057940006256103516,-2.2235922813415527,-1.4963431358337402
1788893104512627700,2.425627685546875,-0.42919015884399414,-2.5438389778137207,-1.3528690338134766
1788893104522644200,2.435644287109375,-0.6000790596008301,-2.8403306007385254,-1.0378856658935547
1788893104532661000,2.445660888671875,-0.20815515518188477,-2.4792165756225586,-0.08352470397949219
1788893104542678500,2.455678466796875,0.9357442855834961,-1.3353958129882812,0.06421852111816406
1788893104552696300,2.4656962890625,1.099165439605713,-1.1516871452331543,-0.0832223892211914
1788893104562715100,2.475715087890625,0.7884402275085449,-1.1687812805175781,0.6815590858459473
1788893104572734700,2.485734619140625,0.8724222183227539,-1.2938904762268066,0.3270277976989746
1788893104582755000,2.495755126953125,0.48969602584838867,-1.0018744468688965,-0.32030153274536133
1788893104592776400,2.5057763671875,-2.8045825958251953,-1.1770405769348145,-0.23265457153320312
1788893104602798600,2.515798583984375,-0.2335681915283203,-0.9801445007324219,-1.2881407737731934
1788893104612821200,2.5258212890625,-1.3719682693481445,-0.8113493919372559,-1.5384101867675781
1788893104622845000,2.535844970703125,-1.411269187927246,-0.6720995903015137,-1.204493522644043
1788893104632868900,2.545868896484375,-0.8419666290283203,0.09727907180786133,-0.9594721794128418
1788893104642893300,2.555893310546875,0.44983816146850586,0.6037402153015137,-0.5819978713989258
1788893104652918000,2.56591796875,0.6235284805297852,0.048458099365234375,-0.6841659545898438
1788893104662942700,2.575942626953125,0.49657201766967773,-0.12441110610961914,-0.5951113700866699
1788893104672967200,2.58596728515625,0.5477194786071777,0.5099492073059082,0.18106651306152344
1788893104682988300,2.59598828125,0.500493049621582,0.5292086601257324,0.5260324478149414
1788893104693006800,2.6060068359375,0.17748355865478516,0.46809864044189453,0.6744289398193359
1788893104703025700,2.616025634765625,-0.30704450607299805,0.6994309425354004,0.7233641147613525
1788893104713044500,2.62604443359375,-0.5302643775939941,1.0762076377868652,0.7691304683685303
1788893104723064000,2.63606396484375,-0.8387007713317871,0.9403400421142578,0.2942051887512207
1788893104733083600,2.646083740234375,-1.1444196701049805,0.6899628639221191,-0.168656587600708
1788893104743104000,2.65610400390625,-1.1172404289245605,0.4930839538574219,-0.219282865524292
1788893104753124600,2.66612451171875,-0.9247002601623535,0.17406940460205078,-0.7763748168945312
1788893104763146000,2.67614599609375,-1.3008060455322266,0.04058408737182617,-0.5925559997558594
1788893104773167600,2.686167724609375,-1.9169130325317383,0.17413902282714844,-0.28830790519714355
1788893104783189800,2.696189697265625,-2.159806728363037,0.373046875,-0.5806310176849365
1788893104793212200,2.706212158203125,-2.1169681549072266,0.6075711250305176,-0.9312055110931396
1788893104803234800,2.71623486328125,-2.2616982460021973,0.3945298194885254,-0.9885191917419434
1788893104813258000,2.726258056640625,-2.0821399688720703,0.533043384552002,-0.9662024974822998
1788893104823281200,2.73628125,-1.9955978393554688,0.580174446105957,-0.9047608375549316
1788893104833304300,2.74630419921875,-1.7394490242004395,0.5117335319519043,-0.6684107780456543
1788893104843332900,2.756332763671875,-1.5162854194641113,0.40860891342163086,-0.5035040378570557
1788893104853349000,2.76634912109375,-1.2942132949829102,0.30896806716918945,-0.36124706268310547
1788893104873382100,2.786382080078125,-1.0181455612182617,0.06807756423950195,-0.07115387916564941
1788893104883399400,2.7963994140625,-0.9609489440917969,-0.021039485931396484,-0.14836454391479492
1788893104893417500,2.80641748046875,-0.6754488945007324,-0.09961557388305664,-0.2495124340057373
1788893104903436000,2.81643603515625,-0.24039173126220703,-0.14646148681640625,-0.3708455562591553
1788893104913455600,2.82645556640625,0.20346641540527344,-0.2176833152770996,-0.5080726146697998
1788893104923476000,2.83647607421875,0.6015653610229492,-0.369539737701416,-0.6714489459991455
1788893104933497300,2.846497314453125,0.9720830917358398,-0.5566816329956055,-0.8321627378463745
1788893104943519500,2.85651953125,1.2625932693481445,-0.7332162857055664,-1.0019116401672363
1788893104953542400,2.86654248046875,1.4451608657836914,-0.8432917594909668,-1.201121211051941
1788893104963566000,2.876566162109375,1.535954475402832,-0.9055089950561523,-1.454658031463623
1788893104973590000,2.886590087890625,1.4420528411865234,-1.0553359985351562,-1.3405674695968628
1788893104983614700,2.89661474609375,1.2902097702026367,-1.1650714874267578,-1.226258635520935
1788893104993639700,2.9066396484375,1.0149459838867188,-1.279625415802002,-1.2380307912826538
1788893105003664400,2.916664306640625,0.7510347366333008,-1.630828857421875,-1.0857728719711304
1788893105013688800,2.926688720703125,0.6661062240600586,-1.7250313758850098,-1.0559611320495605
1788893105023710000,2.9367099609375,0.9648294448852539,-1.476212739944458,-1.307998776435852
1788893105033731300,2.9467314453125,1.1785211563110352,-1.5437190532684326,-1.4771826267242432
1788893105043749600,2.95674951171875,1.1545400619506836,-1.7978849411010742,-1.593316674232483
1788893105053768400,2.9667685546875,1.3418684005737305,-1.9001619815826416,-1.666250228881836
1788893105063787500,2.97678759765625,1.868947982788086,-1.7799053192138672,-1.876786708831787
1788893105073806800,2.986806884765625,2.2334632873535156,-1.8873779773712158,-1.585411548614502
1788893105083826700,2.99682666015625,2.392550468444824,-1.9984219074249268,-1.1949362754821777
1788893105093846800,3.0068466796875,2.279402732849121,-2.076303243637085,-0.7745217084884644
1788893105103867600,3.01686767578125,1.885453224182129,-2.015746593475342,-0.12618201971054077
1788893105113888800,3.026888671875,1.1741113662719727,-1.8049571514129639,0.580639660358429
1788893105123910400,3.036910400390625,0.29056453704833984,-1.5214827060699463,1.1698029041290283
1788893105133932500,3.0469326171875,-0.5821809768676758,-1.1663262844085693,1.4730169773101807
1788893105143955000,3.056954833984375,-1.2953357696533203,-0.8181214332580566,1.382505178451538
1788893105153977900,3.066977783203125,-1.815539836883545,-0.576524019241333,0.9375143051147461
1788893105164000800,3.077000732421875,-2.07688570022583,-0.4915893077850342,0.3155503273010254
1788893105174024000,3.08702392578125,-2.1572608947753906,-0.5285310745239258,-0.4100063741207123
1788893105184047000,3.097047119140625,-2.0008349418640137,-0.6764421463012695,-0.9554447531700134
1788893105194076000,3.107075927734375,-1.6336021423339844,-0.968468189239502,-0.8328692317008972
1788893105204092200,3.117092041015625,-1.3298454284667969,-1.2758021354675293,-0.84534752368927
1788893105214108700,3.127108642578125,-1.2379932403564453,-1.4768397808074951,-0.7046929001808167
1788893105224125400,3.13712548828125,-1.1709070205688477,-1.566749095916748,-0.4605656862258911
1788893105234142700,3.147142822265625,-1.2135562896728516,-1.4521336555480957,-0.34270423650741577
1788893105244160500,3.157160400390625,-1.1689443588256836,-1.2876510620117188,-0.4809766411781311
1788893105254179300,3.167179443359375,-1.0511398315429688,-1.2421308755874634,-0.8023033142089844
1788893105264199000,3.177198974609375,-1.4474525451660156,-0.8771078586578369,-0.4238104224205017
1788893105274219500,3.187219482421875,-2.365072250366211,-0.6343789100646973,-0.02001333236694336
1788893105284240600,3.19724072265625,-3.067192554473877,-0.4334193468093872,-0.5341231226921082
1788893105294263000,3.207262939453125,-2.440354347229004,-0.2923845052719116,-1.6693940162658691
1788893105304286000,3.217285888671875,-1.8072810173034668,-0.22875213623046875,-1.9897027015686035
1788893105314309400,3.227309326171875,-1.4866104125976562,-0.18723654747009277,-1.8818159103393555
1788893105324333600,3.23733349609375,-1.5882673263549805,0.04640012979507446,-1.8960683345794678
1788893105334358000,3.24735791015625,-1.7381343841552734,0.27593672275543213,-1.960335373878479
1788893105344383000,3.257383056640625,-1.941112995147705,0.36650821566581726,-1.888378381729126
1788893105354407700,3.26740771484375,-2.0924458503723145,0.41758620738983154,-1.4310708045959473
1788893105364432000,3.277431884765625,-2.1201910972595215,0.52747642993927,-0.9519166350364685
1788893105374453200,3.287453369140625,-1.8108153343200684,0.5269150137901306,-0.7658782005310059
1788893105384471600,3.297471435546875,-2.146416187286377,0.8026702404022217,-0.6284348368644714
1788893105394490400,3.307490478515625,-0.9503059387207031,0.8875303268432617,-0.15459954738616943
1788893105404509400,3.317509521484375,-3.066532611846924,0.9973397254943848,-0.08478891849517822
1788893105414528800,3.32752880859375,-4.517017364501953,0.5646930932998657,-0.2718970775604248
1788893105424548600,3.337548583984375,-3.1140856742858887,0.5911071300506592,-0.856176495552063
1788893105434568700,3.347568603515625,0.627161979675293,0.5642576813697815,-0.31452906131744385
1788893105444589600,3.357589599609375,-0.2982006072998047,0.18939951062202454,-0.26437807083129883
1788893105454610700,3.367610595703125,-1.1402521133422852,1.274451732635498,-0.9398157596588135
1788893105464632300,3.37763232421875,-0.7408609390258789,1.8465300798416138,-1.1997950077056885
1788893105474654500,3.387654541015625,-0.7924003601074219,1.2818909883499146,-1.091054916381836
1788893105484676900,3.3976767578125,-1.4501352310180664,0.8403351902961731,-0.26628661155700684
1788893105494699800,3.40769970703125,-1.6782236099243164,0.8054530024528503,0.4363311529159546
1788893105504722700,3.41772265625,-1.9329800605773926,0.698595404624939,1.1494379043579102
1788893105514745900,3.427745849609375,-2.174729824066162,0.5186789035797119,1.4157934188842773
1788893105524769000,3.43776904296875,-2.374227523803711,0.4513612687587738,1.810340166091919
1788893105534797800,3.4477978515625,-2.1589407920837402,0.38916251063346863,2.249706745147705
1788893105544814000,3.45781396484375,-2.1939783096313477,0.10614567995071411,1.8859946727752686
1788893105554830600,3.46783056640625,-2.3074588775634766,0.038809120655059814,1.1975460052490234
1788893105564847600,3.47784765625,-2.1225714683532715,-0.05318206548690796,1.098558783531189
1788893105574865000,3.487864990234375,-1.5226459503173828,-0.4634696841239929,1.1013792753219604
1788893105584883000,3.497883056640625,-0.622492790222168,-0.9704187512397766,1.1485377550125122
1788893105594901800,3.50790185546875,0.11243534088134766,-1.3840796947479248,0.7396427392959595
1788893105604921300,3.51792138671875,0.8573036193847656,-1.6562623977661133,0.2772573232650757
1788893105614941700,3.527941650390625,0.9368515014648438,-1.7339681386947632,-0.3332241177558899
1788893105624963000,3.537963134765625,0.14408588409423828,-2.1077795028686523,-1.43598473072052
1788893105634985000,3.54798486328125,-2.805264949798584,-2.2680113315582275,-2.4228768348693848
1788893105645008000,3.5580078125,0.24188995361328125,-1.7934346199035645,-1.2893182039260864
1788893105655031300,3.56803125,-0.5393171310424805,-1.6470186710357666,-0.8534678220748901
1788893105665055500,3.578055419921875,0.05186939239501953,-1.7197164297103882,-1.068122386932373
1788893105675080000,3.588079833984375,0.07674694061279297,-1.7728745937347412,-1.8481121063232422
1788893105685104400,3.5981044921875,0.5476140975952148,-1.7692830562591553,-2.0548524856567383
1788893105695129300,3.60812939453125,0.5870952606201172,-2.099468469619751,-2.406015157699585
1788893105705154000,3.618154052734375,1.186354637145996,-2.4021027088165283,-2.8631680011749268
1788893105715175200,3.628175048828125,1.6613264083862305,-2.6092355251312256,-3.299762487411499
1788893105725193700,3.63819384765625,2.041341781616211,-2.5610268115997314,-3.4920363426208496
1788893105735212500,3.648212646484375,2.297412872314453,-2.219442367553711,-3.578253746032715
1788893105745231600,3.658231689453125,1.9131832122802734,-1.8476295471191406,-3.147087335586548
1788893105755251000,3.6682509765625,1.1815509796142578,-1.5587409734725952,-1.91168212890625
1788893105765270800,3.678270751953125,0.47176647186279297,-1.3456414937973022,-0.21813912689685822
1788893105775291100,3.688291015625,0.18483734130859375,-0.8927546739578247,0.8611233830451965
1788893105785311700,3.698311767578125,0.4564943313598633,-0.4511455297470093,1.6380691528320312
1788893105795332900,3.708332763671875,0.7475156784057617,-0.16543817520141602,2.257005214691162
1788893105805354500,3.7183544921875,0.40242671966552734,-0.09534168243408203,2.407820224761963
1788893105815376600,3.728376708984375,0.13999652862548828,-0.0647890567779541,2.0161664485931396
1788893105825399000,3.73839892578125,0.20696258544921875,-0.29506635665893555,1.7473196983337402
1788893105835422000,3.748421875,-0.08542251586914062,-0.43622350692749023,1.424123764038086
1788893105845444900,3.75844482421875,-0.32451629638671875,-0.6051967144012451,1.1731958389282227
1788893105855468000,3.768468017578125,-0.6633033752441406,-0.5966417789459229,0.8958994746208191
1788893105865491500,3.778491455078125,-1.187408447265625,-0.3951690196990967,0.43313825130462646
1788893105875520000,3.78852001953125,-1.7239179611206055,-0.0800626277923584,0.04274249076843262
1788893105885536500,3.79853662109375,-2.2623562812805176,0.33670830726623535,-0.27929067611694336
1788893105895552800,3.808552734375,-2.7341737747192383,0.7287082672119141,-0.4764063358306885
1788893105905569800,3.81856982421875,-3.0039453506469727,1.016845703125,-0.5632904767990112
1788893105915587000,3.828587158203125,-3.104501247406006,1.235403299331665,-0.5384688377380371
1788893105925605000,3.838605224609375,-3.0360445976257324,1.412185788154602,-0.45041608810424805
1788893105935624000,3.8486240234375,-2.82779598236084,1.6126389503479004,-0.41504430770874023
1788893105945643500,3.8586435546875,-2.585423469543457,1.7348979711532593,-0.3809213638305664
1788893105955664000,3.868663818359375,-2.424173355102539,1.7204842567443848,-0.37397336959838867
1788893105965685200,3.878685302734375,-2.2782859802246094,1.5670192241668701,-0.35808897018432617
1788893105975707400,3.888707275390625,-2.2350358963012695,1.4194283485412598,-0.3052358627319336
1788893105985730300,3.898730224609375,-2.3379945755004883,1.3037965297698975,-0.14378046989440918
1788893105995753700,3.908753662109375,-2.5238099098205566,1.3052170276641846,0.09038090705871582
1788893106005778000,3.91877783203125,-2.837611198425293,1.405172348022461,0.24788832664489746
1788893106015802400,3.92880224609375,-3.1003546714782715,1.576419472694397,0.3823060989379883
1788893106025827000,3.9388271484375,-3.367549419403076,1.7734664678573608,0.4835665225982666
1788893106035852000,3.94885205078125,-3.580686092376709,2.050797939300537,0.3588731288909912
1788893106045876200,3.958876220703125,-3.4626121520996094,2.394036054611206,0.07859325408935547
1788893106055897600,3.968897705078125,-3.0229692459106445,2.648618459701538,-0.47112560272216797
1788893106065918700,3.978918701171875,-2.333484649658203,2.486562728881836,-1.1233711242675781
1788893106075937300,3.988937255859375,-1.5813026428222656,2.000150203704834,-1.4531402587890625
1788893106085955800,3.998955810546875,-0.8714194297790527,1.4146987199783325,-1.516726016998291
1788893106095975000,4.008974853515625,-0.2746405601501465,0.9334273338317871,-1.451594352722168
1788893106105994200,4.018994140625,0.3603782653808594,0.6153666973114014,-1.5612897872924805
1788893106116014000,4.02901416015625,0.9721217155456543,0.3910031318664551,-1.8310489654541016
1788893106126034400,4.039034423828125,1.527970314025879,0.2678368091583252,-2.183382987976074
1788893106136055000,4.049054931640625,1.9862723350524902,0.2032015323638916,-2.7443695068359375
1788893106146076200,4.059076171875,2.379086971282959,0.16852116584777832,-3.575700283050537
1788893106156098000,4.06909814453125,2.6548657417297363,0.0021495819091796875,-4.34559440612793
1788893106166120000,4.079119873046875,2.767333984375,-0.2760591506958008,-4.9858245849609375
1788893106176142600,4.089142578125,2.68508243560791,-0.5268266201019287,-5.629027843475342
1788893106186165200,4.099165283203125,2.6495604515075684,-0.7359317541122437,-6.21142053604126
1788893106196188200,4.109188232421875,2.613396167755127,-0.8074331283569336,-6.772042274475098
1788893106206211300,4.11921142578125,2.296135425567627,-0.7301077842712402,-7.211105823516846
1788893106216234800,4.12923486328125,1.8691530227661133,-0.6259040832519531,-7.34066104888916
1788893106226263300,4.13926318359375,1.2882838249206543,-0.4510987401008606,-7.206894397735596
1788893106236279800,4.14927978515625,0.594141960144043,-0.13739413022994995,-6.938254356384277
1788893106246296300,4.15929638671875,-0.16423749923706055,-0.07162365317344666,-7.074311256408691
1788893106256313300,4.169313232421875,-0.9450588226318359,-0.2150471955537796,-7.095472812652588
1788893106266331000,4.179330810546875,-1.621973991394043,-0.5317507982254028,-6.561100959777832
1788893106276349000,4.189348876953125,-2.1971449851989746,-0.9958559274673462,-5.861132621765137
1788893106286367700,4.19936767578125,-2.452826976776123,-1.6031229496002197,-5.263310432434082
1788893106296387300,4.20938720703125,-2.223677158355713,-2.3934664726257324,-4.35004186630249
1788893106306407700,4.21940771484375,-1.737534999847412,-3.26058030128479,-3.3131518363952637
1788893106316429000,4.229428955078125,-1.5712838172912598,-4.250763893127441,-1.8730173110961914
1788893106326451200,4.239451171875,-1.8095602989196777,-4.857922554016113,-0.5588092803955078
1788893106336473900,4.249473876953125,-1.8638873100280762,-5.153936386108398,0.010172843933105469
1788893106346497300,4.259497314453125,-1.535301685333252,-5.1942901611328125,0.049419403076171875
1788893106356521200,4.269521240234375,-1.302818775177002,-4.969132423400879,-0.08309316635131836
1788893106366545700,4.279545654296875,-1.2095317840576172,-4.605133056640625,-0.3495759963989258
1788893106376570400,4.2895703125,-0.8253979682922363,-4.308562278747559,-0.778071403503418
1788893106386595000,4.299594970703125,-0.15021991729736328,-4.153903484344482,-1.2383718490600586
1788893106396619800,4.309619873046875,0.7037196159362793,-4.1590681076049805,-1.9081640243530273
1788893106406641000,4.319640869140625,1.743861198425293,-4.171568870544434,-2.7542762756347656
1788893106416659500,4.329659423828125,2.6883230209350586,-4.293742656707764,-3.3645553588867188
1788893106426678300,4.33967822265625,3.5087056159973145,-4.505705833435059,-3.5423831939697266
1788893106436697300,4.349697265625,4.184438228607178,-4.808266639709473,-3.466324806213379
1788893106446716700,4.359716552734375,4.235110759735107,-5.39931583404541,-3.4032669067382812
1788893106456736500,4.369736572265625,3.5602145195007324,-5.688569068908691,-2.920705795288086
1788893106466756600,4.379756591796875,2.616333484649658,-5.656551361083984,-2.5673513412475586
1788893106476777500,4.389777587890625,1.5752372741699219,-5.460716724395752,-2.366544723510742
1788893106486798600,4.399798583984375,0.6204366683959961,-5.31468391418457,-2.0914230346679688
1788893106496820200,4.4098203125,-0.13264894485473633,-5.145641326904297,-1.7281007766723633
1788893106506842400,4.41984228515625,-0.8058910369873047,-4.8823561668396,-1.204437255859375
1788893106516864800,4.42986474609375,-1.4839625358581543,-4.810431480407715,-0.9228086471557617
1788893106526887400,4.439887451171875,-2.0237863063812256,-4.614324569702148,-0.6365585327148438
1788893106536910600,4.44991064453125,-2.280216693878174,-4.454039573669434,-0.35486793518066406
1788893106546933800,4.459933837890625,-2.354335308074951,-4.128731727600098,0.0640420913696289
1788893106556957000,4.46995703125,-2.339799404144287,-3.8638219833374023,0.46392154693603516
1788893106566985700,4.47998583984375,-2.2920761108398438,-3.636489152908325,0.8419351577758789
1788893106577002000,4.490001953125,-2.1801810264587402,-3.390293598175049,1.243776798248291
1788893106587018200,4.500018310546875,-2.0392942428588867,-3.119812250137329,1.6444053649902344
1788893106597035000,4.510034912109375,-1.8999507427215576,-2.8276989459991455,2.0094594955444336
1788893106607052500,4.520052490234375,-1.8026020526885986,-2.5340585708618164,2.3570656776428223
1788893106617070300,4.5300703125,-1.7009994983673096,-2.1813290119171143,2.657968521118164
1788893106627089200,4.540089111328125,-1.5725352764129639,-1.8160960674285889,2.8592348098754883
1788893106637108700,4.550108642578125,-1.4049859046936035,-1.4898061752319336,2.9457454681396484
1788893106647129000,4.560129150390625,-1.1861286163330078,-1.2302693128585815,2.9693145751953125
1788893106657150500,4.570150390625,-1.0033860206604004,-1.0563205480575562,3.0059986114501953
1788893106667172900,4.5801728515625,-0.9340023994445801,-0.9158458709716797,3.055583953857422
1788893106677195800,4.59019580078125,-1.0016756057739258,-0.7481261491775513,3.0277462005615234
1788893106687219200,4.60021923828125,-1.1432437896728516,-0.5641365051269531,3.0573983192443848
1788893106697243400,4.610243408203125,-1.2919812202453613,-0.35403335094451904,2.9629249572753906
1788893106707267800,4.620267822265625,-1.4542958736419678,-0.1138010025024414,2.7201385498046875
1788893106717292800,4.630292724609375,-1.6652073860168457,0.15194451808929443,2.481419563293457
1788893106727317500,4.6403173828125,-1.7566838264465332,0.4189774990081787,2.218740940093994
1788893106737341700,4.650341796875,-1.827493667602539,0.6866006851196289,1.795034408569336
1788893106747363000,4.660363037109375,-1.8195757865905762,0.868342399597168,1.134976863861084
1788893106757381600,4.670381591796875,-1.5894882678985596,0.9477217197418213,0.36899471282958984
1788893106767400200,4.680400146484375,-1.2435073852539062,1.0042630434036255,-0.2159266471862793
1788893106777419300,4.690419189453125,-0.6725420951843262,1.0083885192871094,-1.4418697357177734
1788893106787438600,4.7004384765625,0.0221710205078125,0.900639533996582,-2.711491107940674
1788893106797458400,4.71045849609375,0.7525725364685059,0.6677141189575195,-3.721957206726074
1788893106807478800,4.720478759765625,1.3989558219909668,0.49734222888946533,-4.652403354644775
1788893106817499400,4.73049951171875,1.8481435775756836,0.37955641746520996,-5.57153844833374
1788893106827520800,4.740520751953125,2.14302921295166,0.17371296882629395,-6.711056709289551
1788893106837542400,4.75054248046875,2.1878557205200195,-0.21199750900268555,-7.603683948516846
1788893106847564300,4.760564208984375,2.0090107917785645,-0.6328909397125244,-7.919366836547852
1788893106857587000,4.7705869140625,1.9429125785827637,-1.1566691398620605,-8.006891250610352
1788893106867609600,4.780609619140625,1.8952608108520508,-1.8138244152069092,-7.999958515167236
1788893106877632500,4.790632568359375,1.6646418571472168,-2.357414484024048,-7.232138633728027
1788893106887656000,4.800656005859375,0.9882030487060547,-2.4591314792633057,-5.8543267250061035
1788893106897679000,4.81067919921875,0.018139362335205078,-2.316378116607666,-4.394557476043701
1788893106907707600,4.820707763671875,-0.865452766418457,-1.7843546867370605,-3.1138486862182617
1788893106917724000,4.830723876953125,-1.68709135055542,-0.9142584800720215,-1.9414658546447754
1788893106927740400,4.840740478515625,-2.4436874389648438,0.11892318725585938,-1.0277390480041504
1788893106937757200,4.850757080078125,-2.95283842086792,0.949524998664856,-0.4814591407775879
1788893106947774700,4.860774658203125,-3.1747663021087646,1.5730425119400024,-0.04644918441772461
1788893106957792500,4.87079248046875,-3.1894874572753906,2.030566930770874,0.5525288581848145
1788893106967811300,4.880811279296875,-3.087576389312744,2.242542028427124,1.026160717010498
1788893106977831200,4.8908310546875,-2.896071672439575,2.330129384994507,1.4262385368347168
1788893106987851500,4.9008515625,-2.593568801879883,2.4426047801971436,1.6237783432006836
1788893106997873000,4.910872802734375,-2.2009027004241943,2.5959529876708984,1.7294797897338867
1788893107007895000,4.92089501953125,-1.8441858291625977,2.740640640258789,1.5236587524414062
1788893107017918000,4.93091796875,-1.3073005676269531,2.8296821117401123,0.853912353515625
1788893107027941400,4.94094140625,-0.5649876594543457,2.845641851425171,-0.3479275703430176
1788893107037965600,4.950965576171875,0.24826908111572266,2.6231226921081543,-1.474236011505127
1788893107047990000,4.960989990234375,1.0236902236938477,2.1635513305664062,-2.478598117828369
1788893107058014700,4.9710146484375,1.6306266784667969,1.5262155532836914,-3.3411149978637695
1788893107068039400,4.981039306640625,2.121997833251953,0.7709736824035645,-3.769979953765869
1788893107078063900,4.99106396484375,2.558258533477783,-0.0023229122161865234,-3.7815842628479004
1788893107088085000,5.0010849609375,2.7947421073913574,-0.8582568168640137,-3.810786724090576
1788893107098103600,5.011103515625,2.4364280700683594,-1.1225943565368652,-2.7937798500061035
1788893107108122400,5.021122314453125,1.5348591804504395,-1.2849421501159668,-1.9500999450683594
1788893107118141400,5.031141357421875,0.6154584884643555,-0.9584763050079346,-1.917428970336914
1788893107128160800,5.041160888671875,-0.2370738983154297,-0.3843352794647217,-1.572721004486084
1788893107138180600,5.0511806640625,-1.0612668991088867,0.20921587944030762,-1.282914161682129
1788893107148200700,5.06120068359375,-1.7672576904296875,0.9119918346405029,-1.0695409774780273
1788893107158221600,5.0712216796875,-2.3245291709899902,1.24660325050354,-0.9776654243469238
1788893107168242700,5.08124267578125,-2.7925875186920166,1.6427998542785645,-0.8546457290649414
1788893107178264300,5.091264404296875,-3.0828728675842285,2.0615415573120117,-0.6673746109008789
1788893107188286500,5.101286376953125,-3.1468663215637207,2.4686262607574463,-0.426485538482666
1788893107198308900,5.111308837890625,-3.1199865341186523,2.849188804626465,-0.17272138595581055
1788893107208331500,5.12133154296875,-3.070827007293701,3.1216230392456055,0.034356117248535156
1788893107218354700,5.131354736328125,-3.1198811531066895,3.3587112426757812,0.2500019073486328
1788893107228377900,5.1413779296875,-3.1868274211883545,3.6154510974884033,0.4234199523925781
1788893107238401000,5.151401123046875,-3.191596746444702,3.8564934730529785,0.6278500556945801
1788893107248429800,5.161429931640625,-3.187457323074341,4.085928440093994,0.7784280776977539
1788893107258446000,5.171446044921875,-3.1565182209014893,4.312435150146484,0.7470312118530273
1788893107268462600,5.181462646484375,-3.0245378017425537,4.53428840637207,0.46298694610595703
1788893107278479400,5.191479248046875,-2.707920551300049,4.671952247619629,0.08635139465332031
1788893107288496600,5.20149658203125,-2.2763185501098633,4.726254940032959,-0.38480663299560547
1788893107298514700,5.2115146484375,-1.6612253189086914,4.644852638244629,-0.9619755744934082
1788893107308533500,5.221533447265625,-0.901127815246582,4.334446430206299,-1.526618480682373
1788893107318553000,5.231552978515625,-0.0699300765991211,3.7135727405548096,-2.0077390670776367
1788893107328573700,5.24157373046875,0.9426603317260742,2.7185988426208496,-2.464085102081299
1788893107338594800,5.2515947265625,2.3733997344970703,1.9840431213378906,-3.6691017150878906
1788893107348617000,5.261616943359375,3.7655301094055176,0.9133753776550293,-4.268231391906738
1788893107358639900,5.271639892578125,4.465517044067383,-0.31433820724487305,-3.9636073112487793
1788893107368663300,5.281663330078125,4.776569843292236,-1.3118290901184082,-3.922182083129883
1788893107378687500,5.2916875,4.6994309425354,-1.986227035522461,-4.155341625213623
1788893107388711700,5.301711669921875,4.1936116218566895,-1.94227933883667,-4.291891574859619
1788893107398736400,5.311736328125,3.3534059524536133,-1.5438933372497559,-4.615942478179932
1788893107408761300,5.32176123046875,2.4512739181518555,-1.5148591995239258,-4.8288702964782715
1788893107418785800,5.331785888671875,1.8335962295532227,-1.4539523124694824,-4.918071269989014
1788893107428807000,5.341806884765625,1.2893481254577637,-1.585982322692871,-4.764122486114502
1788893107438828300,5.351828369140625,0.9000239372253418,-1.975172519683838,-4.345300197601318
1788893107448846600,5.3618466796875,0.49278831481933594,-2.200382709503174,-3.4716944694519043
1788893107458865400,5.371865478515625,0.055422306060791016,-2.03666353225708,-2.4247689247131348
1788893107468884500,5.381884521484375,-0.3445262908935547,-1.6289992332458496,-1.4185142517089844
1788893107478903800,5.39190380859375,-0.8601784706115723,-1.0449295043945312,-0.34307336807250977
1788893107488923600,5.401923583984375,-1.444533348083496,-0.15223979949951172,0.8392500877380371
1788893107498943700,5.41194384765625,-2.0027365684509277,0.7954311370849609,1.777428388595581
1788893107508964600,5.421964599609375,-2.526597261428833,1.6444077491760254,2.5081233978271484
1788893107518985700,5.43198583984375,-3.038417100906372,2.4028944969177246,3.1046509742736816
1788893107529007400,5.44200732421875,-3.521946907043457,3.0749592781066895,3.639814853668213
1788893107539029500,5.452029541015625,-3.8545374870300293,3.6407275199890137,4.039873123168945
1788893107549052000,5.462052001953125,-3.8409223556518555,4.160175800323486,4.172174453735352
1788893107559074800,5.47207470703125,-3.5601706504821777,4.476772785186768,4.463323593139648
1788893107569097700,5.48209765625,-3.0214955806732178,4.658066749572754,4.607476711273193
1788893107579121000,5.492120849609375,-2.3754522800445557,4.485258102416992,4.588665962219238
1788893107589144300,5.502144287109375,-1.480562686920166,3.992614269256592,3.9162850379943848
1788893107599172900,5.5121728515625,-0.02922964096069336,3.2804579734802246,2.356137990951538
1788893107609189000,5.522189208984375,1.9120450019836426,2.1837220191955566,0.6870760917663574
1788893107619205600,5.53220556640625,3.7805871963500977,0.6763558387756348,-0.48969602584838867
1788893107629222400,5.542222412109375,5.0624213218688965,-0.9606075286865234,-0.741307258605957
1788893107639240000,5.552239990234375,6.109803676605225,-2.146364212036133,-0.7773013114929199
1788893107649257700,5.5622578125,6.6395649909973145,-2.8523340225219727,-0.20549249649047852
1788893107659276500,5.572276611328125,6.29259729385376,-3.4004220962524414,0.5144696235656738
1788893107669296400,5.58229638671875,5.2564592361450195,-3.6545305252075195,0.7797532081604004
1788893107679316700,5.592316650390625,4.099841117858887,-2.920769691467285,0.6928205490112305
1788893107689338000,5.602338134765625,2.9383301734924316,-2.35133695602417,0.9441514015197754
1788893107699360300,5.6123603515625,1.6873054504394531,-1.7899742126464844,1.1348929405212402
1788893107709383200,5.622383056640625,0.39275455474853516,-1.3612685203552246,1.197899341583252
1788893107719406600,5.632406494140625,-0.7682633399963379,-1.103311538696289,1.2114715576171875
1788893107729430500,5.642430419921875,-1.7145848274230957,-0.8551087379455566,1.2982921600341797
1788893107739455000,5.652455078125,-2.3489255905151367,-0.5114421844482422,1.2845115661621094
1788893107749479700,5.662479736328125,-2.7256855964660645,-0.24202919006347656,1.1722087860107422
1788893107759504400,5.67250439453125,-2.9716548919677734,-0.04294919967651367,1.1237101554870605
1788893107769528800,5.68252880859375,-3.012026786804199,0.22968339920043945,1.1379003524780273
1788893107779550200,5.69255029296875,-2.9965662956237793,0.5045413970947266,1.223400592803955
1788893107789568500,5.702568603515625,-2.975010871887207,0.7447333335876465,1.229630470275879
1788893107799587300,5.71258740234375,-2.779232978820801,0.9703712463378906,1.185905933380127
1788893107809606400,5.7226064453125,-2.436631202697754,1.2107996940612793,1.1657633781433105
1788893107819625700,5.732625732421875,-2.0832648277282715,1.510155200958252,1.2196118831634521
1788893107829645600,5.7426455078125,-1.8109245300292969,1.850534439086914,1.3844447135925293
1788893107839665700,5.752665771484375,-1.7573552131652832,2.0614709854125977,1.6604602336883545
1788893107849686500,5.7626865234375,-1.9349851608276367,2.4199938774108887,2.1734678745269775
1788893107859707600,5.772707763671875,-2.1659233570098877,2.799659252166748,2.5557761192321777
1788893107869729300,5.782729248046875,-2.2815370559692383,3.1023969650268555,2.7418065071105957
1788893107879751400,5.79275146484375,-1.8633432388305664,3.1628122329711914,2.3251047134399414
1788893107889773800,5.80277392578125,-0.9207415580749512,2.8501791954040527,1.4822754859924316
1788893107899796700,5.812796630859375,0.10015153884887695,2.018500804901123,0.590510368347168
1788893107909819600,5.822819580078125,1.3886680603027344,0.7091741561889648,-0.23754453659057617
1788893107919842800,5.8328427734375,2.8537039756774902,-0.6973986625671387,-0.8060488700866699
1788893107929866200,5.8428662109375,4.071933746337891,-1.7491579055786133,-0.9290800094604492
1788893107939894800,5.852894775390625,5.001543998718262,-2.6890783309936523,-0.7814860343933105
1788893107949911000,5.8629111328125,5.489355564117432,-3.5567240715026855,-0.585442066192627
1788893107959927600,5.872927490234375,5.438302993774414,-4.154404640197754,-0.8491716384887695
1788893107969944300,5.8829443359375,4.791833400726318,-4.289186477661133,-1.126723289489746
1788893107979961600,5.892961669921875,4.308574676513672,-4.0281548500061035,-1.8651390075683594
1788893107989979400,5.9029794921875,3.873290538787842,-4.047945499420166,-2.8211326599121094
1788893107999998200,5.912998291015625,3.246473789215088,-4.285802841186523,-3.3344812393188477
1788893108010017800,5.923017822265625,2.644935131072998,-4.537110328674316,-3.6994500160217285
1788893108020038400,5.933038330078125,2.4517250061035156,-4.6050004959106445,-3.87872314453125
1788893108030059800,5.943059814453125,2.2457265853881836,-4.510739326477051,-3.7377185821533203
1788893108040082000,5.95308203125,1.7669739723205566,-4.3142218589782715,-3.377498149871826
1788893108050104800,5.963104736328125,0.9089632034301758,-3.8879756927490234,-2.8656864166259766
1788893108060128300,5.973128173828125,-0.14187002182006836,-3.1270155906677246,-2.1737232208251953
1788893108070152400,5.98315234375,-1.2242560386657715,-2.1761574745178223,-1.4064908027648926
1788893108080177000,5.993177001953125,-2.114485263824463,-1.0620617866516113,-0.8479876518249512
1788893108090201900,6.003201904296875,-2.892375946044922,-0.22238397598266602,-0.3303194046020508
1788893108100226800,6.013226806640625,-3.5960447788238525,0.4702334403991699,0.18710041046142578
1788893108110250800,6.023250732421875,-4.077563285827637,1.1139330863952637,0.6820306777954102
1788893108120272100,6.033272216796875,-4.376276016235352,1.5759367942810059,1.175732135772705
1788893108130290400,6.04329052734375,-4.566079139709473,1.8615660667419434,1.7363908290863037
1788893108140309200,6.053309326171875,-4.544174671173096,2.1143107414245605,2.2363150119781494
1788893108150328300,6.063328369140625,-4.2895050048828125,2.4283604621887207,2.554044246673584
1788893108160347600,6.07334765625,-3.778205394744873,2.5856146812438965,2.663999080657959
1788893108170367500,6.083367431640625,-2.974092960357666,2.778201103210449,2.2539243698120117
1788893108180387600,6.0933876953125,-1.9234833717346191,2.6504340171813965,1.5496487617492676
1788893108190408400,6.103408447265625,-0.5705242156982422,2.0964198112487793,0.062358856201171875
1788893108200429600,6.1134296875,1.1169624328613281,1.2231898307800293,-1.645212173461914
1788893108210451200,6.123451171875,2.834364891052246,-0.06900548934936523,-2.4059619903564453
1788893108220473300,6.133473388671875,4.145996570587158,-1.1796813011169434,-2.5006113052368164
1788893108230495700,6.143495849609375,4.871716499328613,-1.837090015411377,-2.2795376777648926
1788893108240518400,6.153518310546875,4.876019477844238,-2.3232202529907227,-1.9891986846923828
1788893108250541600,6.16354150390625,4.203123092651367,-2.4839835166931152,-1.6117777824401855
1788893108260564700,6.173564697265625,2.7714991569519043,-2.1852221488952637,-1.2023706436157227
1788893108270588000,6.183587890625,1.1800737380981445,-1.3430485725402832,-0.8156189918518066
1788893108280616700,6.19361669921875,-0.2279677391052246,-0.5488753318786621,-0.7383294105529785
1788893108290633000,6.203633056640625,-1.4348225593566895,0.034768104553222656,-0.6505074501037598
1788893108300649500,6.2136494140625,-2.4441442489624023,0.630643367767334,-0.5616145133972168
1788893108310666200,6.223666259765625,-3.323563814163208,1.3591604232788086,-0.5188884735107422
1788893108320683500,6.23368359375,-4.003117084503174,1.6800618171691895,-0.7406120300292969
1788893108330701600,6.24370166015625,-4.632626056671143,2.086153030395508,-0.6938824653625488
1788893108340720400,6.253720458984375,-4.976346015930176,2.6793460845947266,-0.5061187744140625
1788893108350740000,6.263739990234375,-5.016604423522949,3.061858654022217,-0.5008816719055176
1788893108360760300,6.27376025390625,-4.947783470153809,3.2212166786193848,-0.5039987564086914
1788893108370781700,6.28378173828125,-4.820356369018555,3.293240547180176,-0.33739185333251953
1788893108380803800,6.293803955078125,-4.608031272888184,3.318021774291992,-0.21522808074951172
1788893108390826500,6.303826416015625,-4.32369327545166,3.343776226043701,-0.3077511787414551
1788893108400850000,6.313849853515625,-3.879520893096924,3.436952590942383,-0.6684269905090332
1788893108410874000,6.3238740234375,-3.408102035522461,3.4725499153137207,-0.6726617813110352
1788893108420898600,6.333898681640625,-2.826315402984619,3.4425148963928223,-0.7458977699279785
1788893108430923300,6.34392333984375,-2.1715807914733887,3.187527656555176,-1.0154528617858887
1788893108440948000,6.353947998046875,-1.3121466636657715,2.8270177841186523,-1.661888599395752
1788893108450972700,6.36397265625,-0.1908106803894043,2.0833263397216797,-2.4901113510131836
1788893108460994000,6.373994140625,1.169931411743164,1.0283536911010742,-3.063767433166504
1788893108471015200,6.38401513671875,2.4708480834960938,-0.19741106033325195,-3.2156381607055664
1788893108481033700,6.39403369140625,3.410308837890625,-1.3951101303100586,-2.922219753265381
1788893108491052300,6.40405224609375,3.951972484588623,-2.2945337295532227,-2.4735755920410156
1788893108501071400,6.4140712890625,4.0942063331604,-2.7315239906311035,-2.219635486602783
1788893108511090700,6.424090576171875,3.739467144012451,-2.8902206420898438,-2.1613316535949707
1788893108521110500,6.434110595703125,2.8797383308410645,-2.79866361618042,-2.064603805541992
1788893108531131000,6.444130859375,2.134182929992676,-2.436344623565674,-2.555309295654297
1788893108541151500,6.4541513671875,1.796438217163086,-2.3166418075561523,-3.57002592086792
1788893108551172600,6.464172607421875,1.7311210632324219,-2.251254081726074,-4.3963446617126465
1788893108561194200,6.4741943359375,1.6437606811523438,-2.4559593200683594,-5.488457679748535
1788893108571216400,6.48421630859375,1.6466732025146484,-3.129293441772461,-6.2902350425720215
1788893108581238800,6.49423876953125,1.984318733215332,-3.8108787536621094,-6.381774425506592
1788893108591261700,6.50426171875,2.5305089950561523,-4.375047206878662,-5.948553562164307
1788893108601284600,6.51428466796875,3.0353379249572754,-4.6623334884643555,-5.009081840515137
1788893108611307800,6.524307861328125,3.254514694213867,-4.478017807006836,-3.401047706604004
1788893108621331200,6.534331298828125,2.706625461578369,-3.8940701484680176,-1.5310778617858887
1788893108631359700,6.54435986328125,1.3818707466125488,-2.625946044921875,0.3602023124694824
1788893108641376000,6.5543759765625,-0.028571605682373047,-1.097060203552246,1.6579322814941406
1788893108651392500,6.564392578125,-1.040863037109375,0.2928805351257324,2.781597852706909
1788893108661409300,6.5744091796875,-1.7873735427856445,1.5487909317016602,3.7559022903442383
1788893108671426600,6.584426513671875,-2.3532862663269043,2.626443386077881,4.534111976623535
1788893108681444600,6.594444580078125,-2.6500260829925537,3.286898612976074,4.6983537673950195
1788893108691463200,6.604463134765625,-2.788818836212158,3.710148811340332,4.723442077636719
1788893108701482800,6.614482666015625,-2.5572476387023926,3.916579246520996,4.638669967651367
1788893108711503400,6.62450341796875,-2.0329885482788086,3.8039331436157227,4.340209007263184
1788893108721524700,6.634524658203125,-1.3322029113769531,3.4307236671447754,3.784829616546631
1788893108731547000,6.644546875,-0.5664057731628418,2.9317994117736816,2.9352335929870605
1788893108741569800,6.65456982421875,0.17576932907104492,2.36138916015625,1.8915748596191406
1788893108751593500,6.664593505859375,0.9784359931945801,1.8698225021362305,0.9553453922271729
1788893108761617400,6.674617431640625,1.8068881034851074,1.4560198783874512,0.26373958587646484
1788893108771642000,6.68464208984375,2.508474349975586,1.1115503311157227,-0.11058664321899414
1788893108781666800,6.694666748046875,2.933204174041748,0.8677511215209961,-0.22495269775390625
1788893108791691800,6.70469189453125,2.9962158203125,0.6380271911621094,-0.33789825439453125
1788893108801716000,6.714716064453125,2.5927672386169434,0.5017256736755371,-0.28414440155029297
1788893108811737000,6.724737060546875,1.8886466026306152,0.6521158218383789,-0.26100873947143555
1788893108821755600,6.734755615234375,1.2742905616760254,0.881019115447998,-0.2639942169189453
1788893108831774200,6.744774169921875,0.7331357002258301,1.1521553993225098,-0.29137682914733887
1788893108841793300,6.754793212890625,0.10025453567504883,1.1420717239379883,-0.27713799476623535
1788893108851812600,6.7648125,-0.5365891456604004,1.0621442794799805,-0.32062244415283203
1788893108861832400,6.77483251953125,-1.147653579711914,1.0894699096679688,-0.33789730072021484
1788893108871852800,6.784852783203125,-1.6469111442565918,1.1367101669311523,-0.2669386863708496
1788893108881873400,6.794873291015625,-2.1030101776123047,1.2012333869934082,-0.16445517539978027
1788893108891894500,6.80489453125,-2.5386719703674316,1.3315820693969727,-0.12612366676330566
1788893108901916200,6.814916259765625,-3.0055899620056152,1.542707920074463,-0.15713953971862793
1788893108911938300,6.824938232421875,-3.359666347503662,1.8108348846435547,-0.20494341850280762
1788893108921960700,6.834960693359375,-3.6485071182250977,2.145705223083496,-0.1990985870361328
1788893108931983600,6.844983642578125,-3.8627235889434814,2.4556632041931152,-0.04050135612487793
1788893108942006500,6.855006591796875,-3.968782901763916,2.7637548446655273,0.18815255165100098
1788893108952029700,6.86502978515625,-4.009393215179443,3.021913528442383,0.30705857276916504
1788893108962053000,6.87505322265625,-3.9458136558532715,3.264038562774658,0.320784330368042
1788893108972081700,6.88508154296875,-3.6788299083709717,3.3787646293640137,0.10822772979736328
1788893108982098200,6.89509814453125,-3.1447978019714355,3.310420513153076,-0.19992518424987793
1788893108992114700,6.90511474609375,-2.4207348823547363,2.963994026184082,-0.37974071502685547
1788893109002131500,6.91513134765625,-1.5746126174926758,2.4305739402770996,-0.3507821559906006
1788893109012149000,6.92514892578125,-0.6299295425415039,1.7499265670776367,-0.33698153495788574
1788893109022166800,6.935166748046875,0.36977577209472656,0.9479961395263672,-0.4820680618286133
1788893109032185600,6.945185546875,1.457916259765625,0.09919977188110352,-0.6084604263305664
1788893109042205200,6.955205078125,2.472370147705078,-0.6976161003112793,-0.7055768966674805
1788893109052225500,6.9652255859375,3.357670307159424,-1.3853416442871094,-0.7528915405273438
1788893109062247000,6.975246826171875,3.9463319778442383,-1.9482779502868652,-0.7235312461853027
1788893109072269000,6.98526904296875,4.154565811157227,-2.4217958450317383,-0.6137104034423828
1788893109082291700,6.995291748046875,4.162649154663086,-2.5581154823303223,-0.8831920623779297
1788893109092315400,7.0053154296875,4.2624287605285645,-2.4536972045898438,-1.3161993026733398
1788893109102339300,7.01533935546875,4.496736526489258,-2.380030632019043,-1.6129403114318848
1788893109112363800,7.02536376953125,4.721475601196289,-2.3635363578796387,-2.2152247428894043
1788893109122388500,7.035388427734375,4.7675580978393555,-2.5357375144958496,-2.6525192260742188
1788893109132413200,7.0454130859375,4.719842910766602,-2.789285659790039,-2.6795759201049805
1788893109142438000,7.05543798828125,4.602800369262695,-2.912874221801758,-2.516770839691162
1788893109152459300,7.065459228515625,4.193608283996582,-2.8878426551818848,-2.0995736122131348
1788893109162477600,7.0754775390625,3.318514347076416,-2.707756996154785,-1.522900104522705
1788893109172496400,7.085496337890625,2.0066094398498535,-2.320769786834717,-1.1160898208618164
1788893109182515500,7.095515380859375,0.6748447418212891,-1.6728343963623047,-0.7552862167358398
1788893109192534800,7.10553466796875,-0.3853282928466797,-0.9527349472045898,-0.2609405517578125
1788893109202554600,7.1155546875,-1.34144926071167,-0.32399511337280273,0.27785587310791016
1788893109212574700,7.12557470703125,-2.137369155883789,0.10705423355102539,0.6995973587036133
1788893109222595600,7.135595703125,-2.7481162548065186,0.5727310180664062,0.9697754383087158
1788893109232616700,7.14561669921875,-3.2119100093841553,0.663762092590332,0.9532697200775146
1788893109242638300,7.155638427734375,-3.4572947025299072,0.8708915710449219,1.129652976989746
1788893109252660500,7.165660400390625,-3.144866943359375,1.1700377464294434,1.0723803043365479
1788893109262683000,7.175682861328125,-2.44038987159729,1.142972469329834,0.9529733657836914
1788893109272705500,7.18570556640625,-1.537696361541748,0.9977278709411621,0.6286382675170898
1788893109282728700,7.195728759765625,-0.5439038276672363,0.6838521957397461,-0.1520705223083496
1788893109292752000,7.205751953125,0.5702900886535645,0.3826761245727539,-1.0185017585754395
1788893109302775000,7.215775146484375,1.5873985290527344,0.14206218719482422,-1.3990554809570312
1788893109312803800,7.225803955078125,2.4887166023254395,-0.050760746002197266,-1.597041130065918
1788893109322820400,7.2358203125,3.1817569732666016,-0.2713003158569336,-1.8067831993103027
1788893109332836900,7.2458369140625,3.434239387512207,-0.41754913330078125,-1.9379587173461914
1788893109342854000,7.25585400390625,3.2309436798095703,-0.457674503326416,-1.915605068206787
1788893109352871400,7.265871337890625,2.4383835792541504,-0.4716453552246094,-1.8920083045959473
1788893109362889500,7.275889404296875,1.2743830680847168,-0.21103954315185547,-2.0012893676757812
1788893109372908300,7.285908203125,0.2618083953857422,0.15680694580078125,-1.9665770530700684
1788893109382928000,7.295927978515625,-0.640775203704834,0.43574047088623047,-1.7576875686645508
1788893109392948500,7.305948486328125,-1.566347599029541,0.668642520904541,-1.5879225730895996
1788893109402969900,7.315969970703125,-2.3463191986083984,1.009018898010254,-1.5358672142028809
1788893109412991700,7.32599169921875,-2.9818058013916016,1.3496651649475098,-1.626427173614502
1788893109423014700,7.3360146484375,-3.4324839115142822,1.7206077575683594,-1.736152172088623
1788893109433038000,7.3460380859375,-3.77305006980896,2.041840076446533,-1.875669002532959
1788893109443062000,7.35606201171875,-4.016790390014648,2.3573813438415527,-1.9943971633911133
1788893109453086500,7.36608642578125,-4.097015380859375,2.64797306060791,-2.143109083175659
1788893109463111200,7.376111083984375,-3.9389750957489014,2.911769390106201,-2.2390129566192627
1788893109473135900,7.386135986328125,-3.7890334129333496,2.958806037902832,-2.23232364654541
1788893109483160300,7.396160400390625,-3.63430118560791,2.910595417022705,-2.1304917335510254
1788893109493181400,7.406181396484375,-3.381587266921997,2.812256336212158,-2.0436105728149414
1788893109503200000,7.416199951171875,-3.047670841217041,2.737748622894287,-2.158374071121216
1788893109513218800,7.42621875,-2.677964687347412,2.6559977531433105,-2.284208297729492
1788893109523238000,7.43623779296875,-2.212477207183838,2.560960292816162,-2.5427799224853516
1788893109533257200,7.44625732421875,-1.5581698417663574,2.403515338897705,-2.845503330230713
1788893109543277000,7.456277099609375,-0.8559660911560059,2.139321804046631,-3.112720489501953
1788893109553297200,7.466297119140625,-0.23251724243164062,1.7532100677490234,-3.3281631469726562
1788893109563318000,7.476318115234375,0.38110923767089844,1.3455653190612793,-3.4774460792541504
1788893109573339100,7.486339111328125,0.9345898628234863,0.9502582550048828,-3.4887804985046387
1788893109583360800,7.49636083984375,1.3645224571228027,0.6159801483154297,-3.35614013671875
1788893109593383000,7.5063828125,1.6126656532287598,0.3632478713989258,-3.178828716278076
1788893109603405300,7.5164052734375,1.7588067054748535,0.2603621482849121,-3.0805978775024414
1788893109613428200,7.52642822265625,1.8737621307373047,0.30883073806762695,-3.0788979530334473
1788893109623451100,7.536451171875,1.9487175941467285,0.43858909606933594,-3.1506357192993164
1788893109633474300,7.546474365234375,1.966184139251709,0.5884804725646973,-3.399725914001465
1788893109643497700,7.556497802734375,2.037013053894043,0.662534236907959,-3.780996799468994
1788893109653526300,7.5665263671875,2.204483985900879,0.654141902923584,-4.133522033691406
1788893109663542800,7.576542724609375,2.3969640731811523,0.5893082618713379,-4.324793338775635
1788893109673559600,7.5865595703125,2.562160015106201,0.47016429901123047,-4.18454122543335
1788893109683576600,7.59657666015625,2.5427470207214355,0.29445552825927734,-3.8731956481933594
1788893109693594000,7.606593994140625,2.3022851943969727,0.19018793106079102,-3.5365347862243652
1788893109703612200,7.616612060546875,1.8861722946166992,0.1764354705810547,-3.1296396255493164
1788893109713631200,7.62663134765625,1.3058280944824219,0.2299947738647461,-2.747681140899658
1788893109723650800,7.63665087890625,0.6490983963012695,0.3497123718261719,-2.302551746368408
1788893109733671400,7.64667138671875,0.06622314453125,0.5348544120788574,-1.9063615798950195
1788893109743692800,7.65669287109375,-0.45915651321411133,0.6650524139404297,-1.477792739868164
1788893109753715000,7.66671484375,-0.8716182708740234,0.8071808815002441,-1.0839924812316895
1788893109763737900,7.67673779296875,-1.1116719245910645,0.9364528656005859,-0.7390999794006348
1788893109773761300,7.68676123046875,-1.192366600036621,0.9981427192687988,-0.4089837074279785
1788893109783785200,7.69678515625,-1.1560282707214355,0.9504613876342773,-0.08765172958374023
1788893109793809700,7.7068095703125,-1.1171536445617676,0.8509688377380371,0.2213129997253418
1788893109803834400,7.71683447265625,-1.1238584518432617,0.7753992080688477,0.45163488388061523
1788893109813859000,7.726859130859375,-1.0817766189575195,0.7072715759277344,0.6228635311126709
1788893109823883000,7.736883056640625,-0.9780569076538086,0.677067756652832,0.6739461421966553
1788893109833904000,7.746904052734375,-0.9249930381774902,0.6471676826477051,0.6822683811187744
1788893109843922700,7.756922607421875,-0.9151968955993652,0.5946869850158691,0.7581620216369629
1788893109853941500,7.76694140625,-0.9652085304260254,0.511134147644043,0.8541202545166016
1788893109863960600,7.776960693359375,-1.053006649017334,0.4324970245361328,0.9742655754089355
1788893109873980000,7.78697998046875,-1.1183605194091797,0.35344362258911133,1.077942132949829
1788893109883999700,7.796999755859375,-1.1347346305847168,0.2879929542541504,1.1386034488677979
1788893109894020000,7.80702001953125,-1.146409511566162,0.2129650115966797,1.1921370029449463
1788893109904040700,7.817040771484375,-1.187453269958496,0.12964248657226562,1.2125279903411865
1788893109914061800,7.827061767578125,-1.1821999549865723,0.02983713150024414,1.168656587600708
1788893109924083500,7.83708349609375,-1.1883869171142578,-0.06186056137084961,1.1456091403961182
1788893109934105600,7.847105712890625,-1.2006196975708008,-0.14935779571533203,1.181502103805542
1788893109944128300,7.857128173828125,-1.174994945526123,-0.19835615158081055,1.176245927810669
1788893109954151000,7.86715087890625,-1.1581926345825195,-0.21752357482910156,1.120995283126831
1788893109964174000,7.877174072265625,-1.220649242401123,-0.2635383605957031,1.1122863292694092
1788893109974197200,7.887197265625,-1.3510727882385254,-0.2875633239746094,1.1463043689727783
1788893109984220700,7.897220703125,-1.5523624420166016,-0.29431581497192383,1.1440789699554443
1788893109994249500,7.90724951171875,-1.803748607635498,-0.2926301956176758,1.0640480518341064
1788893110004265700,7.917265625,-2.0324721336364746,-0.2727828025817871,1.0031840801239014
1788893110014282200,7.9272822265625,-2.2327985763549805,-0.24918746948242188,0.9916775226593018
1788893110024299300,7.93729931640625,-2.4274649620056152,-0.16448974609375,1.0025584697723389
1788893110034316800,7.94731689453125,-2.529313087463379,-0.03791999816894531,1.0089232921600342
1788893110044334800,7.9573349609375,-2.5277724266052246,0.14410161972045898,1.0516583919525146
1788893110054353700,7.967353759765625,-2.4082155227661133,0.41887426376342773,1.094161033630371
1788893110064373200,7.977373291015625,-2.0815019607543945,0.7982645034790039,1.0127313137054443
1788893110074393600,7.9873935546875,-1.498885154724121,1.116236686706543,0.8734252452850342
1788893110084415000,7.9974150390625,-0.737584114074707,1.1776800155639648,0.7837462425231934
1788893110094437000,8.00743701171875,-0.05616188049316406,0.9083824157714844,0.9597437381744385
1788893110104460000,8.0174599609375,0.5409102439880371,0.5228099822998047,0.7459039688110352
1788893110114483500,8.0274833984375,1.0594758987426758,0.14334583282470703,0.38836193084716797
1788893110124507400,8.03750732421875,1.4695148468017578,-0.2697257995605469,0.29758119583129883
1788893110134531800,8.04753173828125,1.6967453956604004,-0.604433536529541,0.3725452423095703
1788893110144556500,8.057556640625,1.837608814239502,-0.7646656036376953,0.27926015853881836
1788893110154581500,8.06758154296875,1.9163212776184082,-0.8677973747253418,0.0597386360168457
1788893110164606000,8.07760595703125,2.166166305541992,-0.9122500419616699,-0.5453033447265625
1788893110174627300,8.08762744140625,2.4316482543945312,-1.018958568572998,-1.2003874778747559
1788893110184648400,8.0976484375,2.609379768371582,-1.2048745155334473,-1.7089529037475586
1788893110194667000,8.1076669921875,2.7926721572875977,-1.3543200492858887,-2.0780210494995117
1788893110204685800,8.117685791015624,2.8686013221740723,-1.4781436920166016,-2.34183931350708
1788893110214705000,8.127704833984374,2.7231202125549316,-1.616772174835205,-2.435393810272217
1788893110224724200,8.13772412109375,2.3079724311828613,-1.6913480758666992,-2.2958030700683594
1788893110234744000,8.147744140625,1.6703810691833496,-1.589552402496338,-2.1093015670776367
1788893110244764400,8.157764404296875,0.8727335929870605,-1.3319520950317383,-1.9181513786315918
1788893110254785000,8.167784912109376,0.09765863418579102,-0.8987436294555664,-1.6603384017944336
1788893110264806400,8.177806396484375,-0.47564220428466797,-0.34076499938964844,-1.2819061279296875
1788893110274828000,8.187828125,-0.9874253273010254,0.2430577278137207,-0.8416070938110352
1788893110284850200,8.19785009765625,-1.4775323867797852,0.7970457077026367,-0.37491559982299805
1788893110294872600,8.20787255859375,-1.9387521743774414,1.3273124694824219,0.019370555877685547
1788893110304895500,8.2178955078125,-2.3516716957092285,1.6948881149291992,0.2456684112548828
1788893110314918400,8.22791845703125,-2.6705942153930664,1.9121856689453125,0.35012245178222656
1788893110324941800,8.23794189453125,-2.77048397064209,1.975405216217041,0.2399907112121582
1788893110334965000,8.247965087890625,-2.4897589683532715,1.9463272094726562,0.004456043243408203
1788893110344993800,8.257993896484376,-1.8831558227539062,1.8292407989501953,-0.21062803268432617
1788893110355010300,8.26801025390625,-1.062286376953125,1.5756855010986328,-0.3058023452758789
1788893110365026800,8.27802685546875,-0.22457599639892578,1.2142257690429688,-0.3394169807434082
1788893110375043800,8.2880439453125,0.5911417007446289,0.7645549774169922,-0.3408021926879883
1788893110385061000,8.29806103515625,1.2897858619689941,0.2571234703063965,-0.38237476348876953
1788893110395079200,8.3080791015625,1.8148036003112793,-0.26149749755859375,-0.23778915405273438
1788893110405098000,8.318097900390624,2.1626529693603516,-0.8571019172668457,0.06294107437133789
1788893110415117600,8.32811767578125,2.2698135375976562,-1.3217072486877441,0.46184539794921875
1788893110425138200,8.33813818359375,2.0291647911071777,-1.7267193794250488,0.9165048599243164
1788893110435159600,8.34815966796875,1.4285283088684082,-1.9870710372924805,1.3185853958129883
1788893110445181700,8.358181640625,0.8085999488830566,-1.9971575736999512,1.3288955688476562
1788893110455204400,8.368204345703125,0.3898615837097168,-1.9122910499572754,0.9899024963378906
1788893110465228000,8.37822802734375,-0.04534292221069336,-2.0520052909851074,0.9602155685424805
1788893110475252000,8.388251953125,-0.5476474761962891,-2.2388858795166016,0.855781078338623
1788893110485276400,8.3982763671875,-1.04933500289917,-2.36106538772583,0.5723943710327148
1788893110495301400,8.40830126953125,-1.4980487823486328,-2.4715991020202637,0.35612964630126953
1788893110505326000,8.418326171875,-1.8419036865234375,-2.4091014862060547,0.19008541107177734
1788893110515350800,8.428350830078125,-2.154928684234619,-2.2809348106384277,0.14218425750732422
1788893110525372000,8.438371826171876,-2.4731040000915527,-2.0847434997558594,0.24655580520629883
1788893110535393300,8.448393310546875,-2.755929946899414,-1.8078298568725586,0.4023151397705078
1788893110545411800,8.458411865234375,-3.0641958713531494,-1.4805145263671875,0.5166258811950684
1788893110555430700,8.4684306640625,-3.3445212841033936,-1.0853853225708008,0.624413013458252
1788893110565449700,8.47844970703125,-3.577328681945801,-0.7051362991333008,0.8355870246887207
1788893110575469000,8.488468994140625,-3.753441095352173,-0.36076927185058594,1.1392757892608643
1788893110585489000,8.498489013671875,-3.864826202392578,-0.08772993087768555,1.4608654975891113
1788893110595509200,8.50850927734375,-3.87170672416687,0.16401910781860352,1.7531888484954834
1788893110605529900,8.51852978515625,-3.7037761211395264,0.405825138092041,1.9527056217193604
1788893110615551200,8.52855126953125,-3.2354354858398438,0.5759954452514648,2.082939386367798
1788893110625572900,8.53857275390625,-2.3419559001922607,0.8111705780029297,1.6792638301849365
1788893110635595000,8.548594970703125,-1.4636681079864502,0.746361255645752,1.3628959655761719
1788893110645617700,8.55861767578125,-0.5169429779052734,0.632080078125,1.0043621063232422
1788893110655640300,8.568640380859375,0.7152256965637207,0.3294539451599121,0.5015830993652344
1788893110665663500,8.57866357421875,2.082625389099121,-0.24825429916381836,0.10874605178833008
1788893110675686700,8.588686767578125,3.322503089904785,-0.7839059829711914,-0.07592630386352539
1788893110685710000,8.5987099609375,4.301535129547119,-1.1296286582946777,-0.16106271743774414
1788893110695739000,8.60873876953125,4.9805989265441895,-1.2432427406311035,-0.2298426628112793
1788893110705755100,8.618755126953126,5.3390212059021,-1.4555082321166992,-0.405947208404541
1788893110715771600,8.628771728515625,5.076786041259766,-1.7040748596191406,-0.5587825775146484
1788893110725788400,8.638788330078125,4.188967227935791,-1.6518406867980957,-0.4767599105834961
1788893110735806000,8.648805908203125,3.254147529602051,-1.3990650177001953,-0.8617434501647949
1788893110745824000,8.658823974609374,2.372556686401367,-1.313025951385498,-1.0366272926330566
1788893110755842800,8.6688427734375,1.5867657661437988,-1.3536691665649414,-1.0426087379455566
1788893110765862400,8.6788623046875,0.9717392921447754,-1.3315467834472656,-1.237980842590332
1788893110775883000,8.688883056640625,0.4154319763183594,-1.416630744934082,-1.420637607574463
1788893110785904000,8.698904052734376,0.009187698364257812,-1.2905478477478027,-1.420210838317871
1788893110795926300,8.70892626953125,-0.2532329559326172,-1.4683828353881836,-1.7690186500549316
1788893110805949200,8.71894921875,-0.5374016761779785,-1.259181022644043,-1.7825994491577148
1788893110815972900,8.728972900390625,-0.6619110107421875,-0.9225449562072754,-1.6609277725219727
1788893110825997000,8.7389970703125,-0.7568225860595703,-0.7081913948059082,-1.7662205696105957
1788893110836021500,8.749021484375,-0.7848701477050781,-0.5834050178527832,-1.8773903846740723
1788893110846046200,8.759046142578125,-0.6742310523986816,-0.5786323547363281,-2.1966700553894043
1788893110856071200,8.7690712890625,-0.3953070640563965,-0.612309455871582,-2.468116283416748
1788893110866095900,8.779095947265626,-0.08585548400878906,-0.6870269775390625,-2.591999053955078
1788893110876117000,8.789116943359375,0.35689687728881836,-0.7740635871887207,-3.2786898612976074
1788893110886135600,8.799135498046875,0.9458150863647461,-1.1069960594177246,-3.9289650917053223
1788893110896154400,8.809154296875,1.564518928527832,-1.6900367736816406,-3.925401210784912
1788893110906173400,8.81917333984375,2.0701284408569336,-2.350341796875,-3.5145411491394043
1788893110916192800,8.82919287109375,2.371723175048828,-2.826937675476074,-2.5197315216064453
1788893110926212600,8.839212646484375,2.413336753845215,-2.9494218826293945,-1.265164852142334
1788893110936233000,8.84923291015625,1.9642291069030762,-2.591517448425293,-0.20503520965576172
1788893110946253800,8.85925390625,0.8100686073303223,-2.1129207611083984,0.5570859909057617
1788893110956275000,8.86927490234375,-0.6350879669189453,-1.4779911041259766,1.2378878593444824
1788893110966296600,8.879296630859375,-1.8831028938293457,-0.6595101356506348,1.8127613067626953
1788893110976318700,8.889318603515624,-2.8605446815490723,0.098358154296875,2.171721935272217
1788893110986341400,8.89934130859375,-3.7836928367614746,0.5777192115783691,2.3186516761779785
1788893110996364000,8.909364013671874,-4.585686683654785,0.9903311729431152,2.559558629989624
1788893111006387200,8.91938720703125,-5.031142234802246,1.370577335357666,2.866828680038452
1788893111016410400,8.929410400390625,-5.21495246887207,1.6061582565307617,2.981276512145996
1788893111026433800,8.939433837890626,-5.2984137535095215,1.805068016052246,3.040493965148926
1788893111036462600,8.949462646484376,-5.171737194061279,1.9892053604125977,3.0503811836242676
1788893111046479000,8.95947900390625,-4.75879430770874,2.0653462409973145,2.8928613662719727
1788893111056495600,8.96949560546875,-4.035896301269531,2.0211129188537598,2.5082502365112305
1788893111066512600,8.9795126953125,-3.10992693901062,1.9001250267028809,1.6502349376678467
1788893111076530200,8.9895302734375,-1.9196410179138184,1.6952333450317383,0.2579970359802246
1788893111086548200,8.99954833984375,-0.45021724700927734,1.3389525413513184,-1.5469856262207031
1788893111096567000,9.009567138671875,1.0554957389831543,0.781651496887207,-3.3730053901672363
1788893111106586600,9.019586669921875,2.540156841278076,-0.11008262634277344,-4.133934020996094
1788893111116607200,9.029607177734375,3.7312355041503906,-1.3414559364318848,-3.5666799545288086
1788893111126628600,9.039628662109376,4.674188613891602,-2.7982587814331055,-3.2081823348999023
1788893111136650800,9.049650634765625,5.504052639007568,-3.3480749130249023,-3.1339335441589355
1788893111146673700,9.059673583984376,6.019194602966309,-3.2532896995544434,-2.489816665649414
1788893111156697000,9.069697021484375,5.91471004486084,-2.555450439453125,-1.3460240364074707
1788893111166721000,9.079720947265624,4.7787580490112305,-1.821897029876709,-0.40958070755004883
1788893111176745500,9.089745361328125,3.0155205726623535,-1.010159969329834,-0.44771385192871094
1788893111186770200,9.099770263671875,1.2408595085144043,-0.11648178100585938,-0.24222660064697266
1788893111196795100,9.109795166015624,-0.42224931716918945,0.5765776634216309,0.10951662063598633
1788893111206819800,9.11981982421875,-1.8698749542236328,1.143172264099121,0.4648599624633789
1788893111216841000,9.129841064453124,-2.9994187355041504,1.6662602424621582,0.7139098644256592
1788893111226859800,9.13985986328125,-3.819788932800293,2.264651298522949,0.8233370780944824
1788893111236878600,9.149878662109375,-4.3796257972717285,2.7264928817749023,0.9677259922027588
1788893111246897400,9.1598974609375,-4.562464714050293,3.0259323120117188,1.0885207653045654
1788893111256917000,9.1699169921875,-4.268585681915283,3.082988739013672,1.1396517753601074
1788893111266936800,9.179936767578125,-3.6221423149108887,2.959811210632324,1.2784857749938965
1788893111276957200,9.189957275390626,-2.7760374546051025,2.7268104553222656,1.1663641929626465
1788893111286977800,9.199977783203124,-1.9373855590820312,2.3424854278564453,1.0867211818695068
1788893111296999200,9.209999267578125,-1.1922640800476074,1.8446955680847168,1.244553565979004
1788893111307020800,9.220020751953125,-0.4253063201904297,1.4590811729431152,1.3517751693725586
1788893111317043000,9.23004296875,0.2429823875427246,1.2534847259521484,1.5395560264587402
1788893111327065600,9.240065673828125,0.7934327125549316,1.1126394271850586,1.7496612071990967
1788893111337088300,9.250088134765624,1.279311180114746,0.907597541809082,1.891648530960083
1788893111347111400,9.260111328125,1.5971956253051758,0.7496738433837891,2.0140278339385986
1788893111357134600,9.270134521484374,1.8116683959960938,0.5981426239013672,2.0548579692840576
1788893111367158000,9.280157958984375,1.9145870208740234,0.41697120666503906,1.9805636405944824
1788893111377186800,9.290186767578126,1.959531307220459,0.1934347152709961,1.8299200534820557
1788893111387203000,9.300203125,1.9780182838439941,-0.013062000274658203,1.7957251071929932
1788893111397219800,9.3102197265625,2.0094189643859863,-0.2384181022644043,1.8050153255462646
1788893111407236900,9.32023681640625,1.9321699142456055,-0.43329524993896484,1.7296874523162842
1788893111417254100,9.330254150390624,1.782365322113037,-0.7016324996948242,1.6088027954101562
1788893111427272400,9.3402724609375,1.5882658958435059,-0.9222602844238281,1.4346144199371338
1788893111437291300,9.350291259765624,1.392829418182373,-1.0703315734863281,1.138272762298584
1788893111447310800,9.360310791015625,1.1095728874206543,-1.2034196853637695,0.8194260597229004
1788893111457331500,9.37033154296875,0.828742504119873,-1.365379810333252,0.5449981689453125
1788893111467352800,9.380352783203126,0.564399242401123,-1.5092487335205078,0.3253469467163086
1788893111477375000,9.390375,0.2826838493347168,-1.6682167053222656,0.24611663818359375
1788893111487398000,9.40039794921875,0.03334522247314453,-1.8045058250427246,-0.06727218627929688
1788893111497421300,9.41042138671875,-0.10976123809814453,-2.055664539337158,-0.47394800186157227
1788893111507445200,9.4204453125,-0.0033326148986816406,-2.208559513092041,-0.8137965202331543
1788893111517469700,9.4304697265625,0.2431926727294922,-2.348681926727295,-1.3497486114501953
1788893111527494400,9.440494384765625,0.5487494468688965,-2.620762825012207,-1.6019763946533203
1788893111537519000,9.45051904296875,0.8920340538024902,-2.8627443313598633,-1.5106101036071777
1788893111547544000,9.4605439453125,1.1478843688964844,-2.961833953857422,-1.4623141288757324
1788893111557565200,9.470565185546874,1.17303466796875,-2.9974303245544434,-1.2009873390197754
1788893111567586600,9.480586669921875,0.9593667984008789,-2.8559532165527344,-0.7729415893554688
1788893111577608000,9.49060791015625,0.42446231842041016,-2.545992374420166,-0.27713537216186523
1788893111587626500,9.50062646484375,-0.35949087142944336,-2.130885124206543,0.16758489608764648
1788893111597645000,9.51064501953125,-1.0973730087280273,-1.6114625930786133,0.5459580421447754
1788893111607664000,9.5206640625,-1.7299833297729492,-1.1898813247680664,0.9903626441955566
1788893111617683700,9.53068359375,-2.240635395050049,-0.7762422561645508,1.4327025413513184
1788893111627703600,9.54070361328125,-2.608276844024658,-0.4253568649291992,1.7054784297943115
1788893111637724000,9.550723876953125,-2.8521482944488525,-0.2031083106994629,1.831876516342163
1788893111647744500,9.56074462890625,-2.873140573501587,-0.042456626892089844,1.8250296115875244
1788893111657766000,9.570765869140626,-2.63165020942688,0.05481433868408203,1.621293067932129
1788893111667787500,9.58078759765625,-2.1713926792144775,-0.05832195281982422,1.291032314300537
1788893111677809700,9.5908095703125,-1.603529453277588,-0.24312496185302734,0.9150190353393555
1788893111687832300,9.600832275390625,-0.9724082946777344,-0.48134660720825195,0.5271401405334473
1788893111697855000,9.61085498046875,-0.27387094497680664,-0.8298635482788086,0.31856489181518555
1788893111707878100,9.620878173828125,0.3881831169128418,-1.1772541999816895,-0.020427227020263672
1788893111717901600,9.630901611328126,0.802983283996582,-1.4970765113830566,-0.17172622680664062
1788893111727925000,9.640925048828125,0.8210296630859375,-1.7029976844787598,0.05315685272216797
1788893111737953800,9.650953857421875,0.4247570037841797,-1.663078784942627,0.44950151443481445
1788893111747970000,9.660969970703125,-0.19020795822143555,-1.3197226524353027,0.6460309028625488
1788893111757986600,9.670986572265624,-0.732025146484375,-0.9116616249084473,0.7032508850097656
1788893111768003300,9.68100341796875,-1.1838016510009766,-0.4362797737121582,0.6493229866027832
1788893111778020900,9.691020751953126,-1.489201545715332,0.1309947967529297,0.2676663398742676
1788893111788039000,9.701038818359375,-1.5168161392211914,0.5035195350646973,-0.40413331985473633
1788893111798057700,9.7110576171875,-1.0213899612426758,0.6660323143005371,-1.096764087677002
1788893111808077300,9.721077392578126,-0.19553565979003906,0.5003137588500977,-1.6079716682434082
1788893111818098000,9.731097900390624,0.7339868545532227,0.1547231674194336,-1.617079734802246
1788893111828119300,9.741119384765625,1.5350265502929688,-0.14974403381347656,-1.4200425148010254
1788893111838141400,9.751141357421876,2.058382987976074,-0.3148689270019531,-1.0939006805419922
1788893111848164400,9.761164306640625,2.2498998641967773,-0.14658737182617188,-0.7886762619018555
1788893111858188000,9.77118798828125,2.0155277252197266,0.20236539840698242,-0.4679417610168457
1788893111868212200,9.781212158203125,1.3047809600830078,0.5133790969848633,-0.2388296127319336
1788893111878236700,9.791236572265625,0.2858095169067383,0.8431658744812012,0.050670623779296875
1788893111888261400,9.801261474609374,-0.6497902870178223,1.2922840118408203,0.0968332290649414
1788893111898286300,9.811286376953126,-1.3994150161743164,1.6579208374023438,0.04238080978393555
1788893111908311000,9.82131103515625,-2.0754218101501465,1.8607592582702637,-0.016201019287109375
1788893111918332200,9.831332275390626,-2.618673324584961,2.0452494621276855,-0.14925336837768555
1788893111928350700,9.841350830078126,-2.9651038646698,2.111546516418457,-0.2301769256591797
1788893111938369500,9.85136962890625,-3.0784952640533447,2.1739015579223633,-0.4069328308105469
1788893111948388600,9.861388671875,-3.07930064201355,2.197991371154785,-0.6962485313415527
1788893111958408200,9.871408203125,-3.1639065742492676,2.1158571243286133,-1.0565648078918457
1788893111968428000,9.881427978515624,-3.3626768589019775,2.0174436569213867,-1.4247264862060547
1788893111978448400,9.891448486328125,-3.4748103618621826,2.0927486419677734,-1.6271767616271973
1788893111988469000,9.901468994140625,-3.2989165782928467,2.2669758796691895,-2.138430118560791
1788893111998490400,9.911490478515624,-3.199291467666626,1.9732990264892578,-2.921964645385742
1788893112008512000,9.921511962890625,-2.7517597675323486,1.780468463897705,-3.697268009185791
1788893112018534100,9.9315341796875,-1.8382210731506348,1.8279681205749512,-4.314779281616211
1788893112028556500,9.941556640625,-0.7399415969848633,1.1794781684875488,-4.4682183265686035
1788893112038579500,9.951579345703125,0.24868106842041016,0.3510475158691406,-4.431699752807617
1788893112048602600,9.9616025390625,1.1376047134399414,-0.44127321243286133,-4.325272083282471
1788893112058625800,9.971625732421876,2.0017752647399902,-1.046332836151123,-4.187448501586914
1788893112068649200,9.981649169921875,2.7558183670043945,-1.417494773864746,-4.170114040374756
1788893112078677800,9.991677734375,3.321763515472412,-1.5612945556640625,-4.26911735534668
1788893112088694500,10.001694580078125,3.476923942565918,-1.4559273719787598,-4.482080936431885
1788893112098711000,10.0117109375,3.186403751373291,-1.1892166137695312,-4.64387845993042
1788893112108728300,10.021728271484376,2.8003201484680176,-0.9734992980957031,-4.629133224487305
1788893112118745900,10.031745849609376,2.2797980308532715,-0.8549933433532715,-4.436319828033447
1788893112128764200,10.04176416015625,1.7696685791015625,-0.9106354713439941,-4.326653003692627
1788893112138783000,10.051782958984376,1.331876277923584,-0.9841680526733398,-4.0211100578308105
1788893112148802800,10.061802734375,1.061570644378662,-1.0037875175476074,-3.324741840362549
1788893112158823400,10.071823486328125,0.9478940963745117,-1.003448486328125,-2.4921178817749023
1788893112168844800,10.0818447265625,0.9182014465332031,-0.8121504783630371,-1.3226795196533203
1788893112178867000,10.091866943359374,0.9074077606201172,-0.41455507278442383,-0.056307315826416016
1788893112188889900,10.101889892578125,0.8366818428039551,0.09920215606689453,1.015690803527832
1788893112198913300,10.111913330078124,0.6972856521606445,0.6535210609436035,1.8831291198730469
1788893112208937500,10.1219375,0.57427978515625,1.2197699546813965,2.573734760284424
1788893112218962000,10.1319619140625,0.3935556411743164,1.692258358001709,3.1197800636291504
1788893112228986400,10.141986328125,0.16251659393310547,2.0791687965393066,3.5117037296295166
1788893112239011300,10.15201123046875,-0.05869340896606445,2.282989501953125,3.8124916553497314
1788893112249035300,10.16203515625,-0.27235913276672363,2.471879005432129,3.9342405796051025
1788893112259056600,10.172056640625,-0.49957752227783203,2.490072250366211,4.0654096603393555
1788893112269075200,10.1820751953125,-0.5884006023406982,2.3839306831359863,4.159567356109619
1788893112279094000,10.192093994140626,-0.6635837554931641,2.2276406288146973,3.951856851577759
1788893112289113000,10.202113037109376,-0.795342206954956,2.045461654663086,3.154632329940796
1788893112299132400,10.21213232421875,-0.5811550617218018,1.7693243026733398,1.9053020477294922
1788893112309152300,10.22215234375,0.14554738998413086,1.2740631103515625,0.5079426765441895
1788893112319172600,10.232172607421875,1.127767562866211,0.5747714042663574,-0.9613423347473145
1788893112329193500,10.242193359375,2.2514193058013916,-0.37015199661254883,-2.012363910675049
1788893112339214600,10.252214599609376,3.5366971492767334,-1.8095097541809082,-2.7973709106445312
1788893112349236500,10.262236572265625,4.479765892028809,-2.8597164154052734,-2.5842480659484863
1788893112359258600,10.272258544921876,5.082590103149414,-3.277942180633545,-1.8385872840881348
1788893112369281000,10.282281005859375,5.3579792976379395,-3.0368857383728027,-1.253152847290039
1788893112379304000,10.292303955078125,5.173420429229736,-2.425607204437256,-0.948340892791748
1788893112389326800,10.302326904296875,4.411350727081299,-2.032163143157959,-1.0806365013122559
1788893112399350000,10.31235009765625,3.239994525909424,-1.455322265625,-1.2291269302368164
1788893112409373400,10.32237353515625,1.762934684753418,-0.8606972694396973,-1.133479118347168
1788893112419402200,10.33240234375,0.37549543380737305,-0.4127373695373535,-0.8313226699829102
1788893112429418800,10.342418701171875,-0.6341331005096436,0.045044898986816406,-0.4762701988220215
1788893112439435500,10.352435546875,-1.3311278820037842,0.4388461112976074,-0.1917896270751953
1788893112449452800,10.362452880859376,-1.8085358142852783,1.0831737518310547,0.2471027374267578
1788893112459470300,10.37247021484375,-2.1277034282684326,1.3710441589355469,0.4320049285888672
1788893112469488400,10.38248828125,-2.607661485671997,1.5972375869750977,0.8306646347045898
1788893112479507200,10.392507080078126,-2.855794906616211,2.038862705230713,1.3523950576782227
1788893112489527000,10.402527099609374,-2.828643321990967,2.5266313552856445,1.8238377571105957
1788893112499547600,10.412547607421875,-2.726871967315674,2.79107666015625,2.2535271644592285
1788893112509568800,10.42256884765625,-2.5680460929870605,2.9224061965942383,2.7262730598449707
1788893112519591000,10.4325908203125,-2.378549098968506,2.9873290061950684,3.211799144744873
1788893112529613800,10.44261376953125,-2.1697428226470947,3.0382347106933594,3.7517499923706055
1788893112539637200,10.45263720703125,-1.881740927696228,3.1086373329162598,4.138668537139893
1788893112549661400,10.462661376953125,-1.4809541702270508,3.221611976623535,4.041317939758301
1788893112559686000,10.472685791015625,-1.0282838344573975,3.240957736968994,3.531015634536743
1788893112569710600,10.482710693359374,-0.5342516899108887,3.0967583656311035,2.74656343460083
1788893112579735300,10.4927353515625,0.15227866172790527,2.718874454498291,1.7317934036254883
1788893112589759700,10.502759765625,0.9784414768218994,2.009519100189209,0.7932953834533691
1788893112599781000,10.512781005859376,1.8129253387451172,1.130636215209961,0.1165013313293457
1788893112609799700,10.522799560546876,2.6092920303344727,0.26171445846557617,-0.3415031433105469
1788893112619818500,10.532818603515626,3.382749319076538,-0.5286602973937988,-0.684321403503418
1788893112629837600,10.542837646484376,3.9805476665496826,-1.2114324569702148,-0.943943977355957
1788893112639857000,10.55285693359375,4.2256879806518555,-1.6368536949157715,-1.1751046180725098
1788893112649876700,10.562876708984374,3.9801032543182373,-1.9571080207824707,-1.3635296821594238
1788893112659897000,10.57289697265625,3.3650949001312256,-2.212672233581543,-1.8076095581054688
1788893112669918000,10.58291796875,2.726334810256958,-2.175906181335449,-2.0671439170837402
1788893112679939000,10.59293896484375,2.167750597000122,-2.164958953857422,-2.229125499725342
1788893112689961000,10.6029609375,1.622730016708374,-2.3535475730895996,-2.2536206245422363
1788893112699983000,10.612983154296876,1.1774566173553467,-2.651834487915039,-2.419240951538086
1788893112710005500,10.623005615234375,0.8350765705108643,-3.0192947387695312,-2.793386459350586
1788893112720028400,10.6330283203125,0.6199276447296143,-3.0367374420166016,-2.8034424781799316
1788893112730051300,10.64305126953125,0.6709749698638916,-3.2631382942199707,-3.136444091796875
1788893112740074500,10.653074462890626,0.7273552417755127,-3.142108917236328,-2.845973014831543
1788893112750098000,10.663097900390625,0.8232741355895996,-2.871337413787842,-2.352205276489258
1788893112760126700,10.673126708984375,0.8032217025756836,-2.56589412689209,-1.969161033630371
1788893112770143200,10.683143310546875,0.7914495468139648,-2.153597831726074,-1.488372802734375
1788893112780160000,10.693159912109374,0.6687588691711426,-1.638073444366455,-0.8454599380493164
1788893112790177300,10.70317724609375,0.3008847236633301,-1.0554866790771484,-0.12584352493286133
1788893112800194800,10.71319482421875,-0.21777820587158203,-0.42215776443481445,0.5742530822753906
1788893112810212900,10.723212890625,-0.7656004428863525,0.2073516845703125,1.2152109146118164
1788893112820231700,10.733231689453126,-1.308534860610962,0.801607608795166,1.790806770324707
1788893112830251500,10.74325146484375,-1.7838761806488037,1.371342658996582,2.2384538650512695
1788893112840272100,10.753272216796875,-2.2055299282073975,1.8643054962158203,2.6255011558532715
1788893112850293200,10.763293212890625,-2.6023943424224854,2.251333713531494,3.0195200443267822
1788893112860315400,10.7733154296875,-2.9318599700927734,2.5508742332458496,3.3015382289886475
1788893112870338300,10.78333837890625,-3.1807031631469727,2.756735324859619,3.4820990562438965
1788893112880361700,10.79336181640625,-3.360029935836792,2.857861042022705,3.5905213356018066
1788893112890386000,10.803385986328125,-3.3911192417144775,2.871426582336426,3.2976698875427246
1788893112900410400,10.813410400390625,-3.1554973125457764,2.784533977508545,2.403978109359741
1788893112910435000,10.82343505859375,-2.4810891151428223,2.5250167846679688,0.9738388061523438
1788893112920459800,10.833459716796876,-1.3625895977020264,1.9423317909240723,-0.4928884506225586
1788893112930484200,10.843484130859375,-0.23220324516296387,0.8921198844909668,-1.4140357971191406
1788893112940505600,10.853505615234376,1.1655986309051514,-0.4169182777404785,-2.542323112487793
1788893112950524200,10.863524169921876,2.8754303455352783,-1.7629523277282715,-3.298832416534424
1788893112960542700,10.873542724609376,4.369722843170166,-2.773186206817627,-3.399548053741455
1788893112970561800,10.883561767578126,5.236933708190918,-3.2830429077148438,-3.338947296142578
1788893112980581400,10.893581298828124,5.6002020835876465,-3.2173852920532227,-3.182828426361084
1788893112990601200,10.903601318359375,5.332059383392334,-3.107853412628174,-3.0756192207336426
1788893113000621300,10.913621337890625,4.708204746246338,-2.8212103843688965,-3.39345121383667
1788893113010642200,10.92364208984375,3.9281973838806152,-2.2627201080322266,-3.4121594429016113
1788893113020663600,10.93366357421875,2.873434066772461,-1.8238253593444824,-3.3305392265319824
1788893113030685200,10.943685302734375,1.6559743881225586,-1.4744253158569336,-2.9142465591430664
1788893113040707600,10.95370751953125,0.4699230194091797,-1.0053315162658691,-2.3593249320983887
1788893113050730000,10.96372998046875,-0.5702524185180664,-0.25772571563720703,-1.8469619750976562
1788893113060753000,10.9737529296875,-1.5642037391662598,-0.0443115234375,-1.9557743072509766
1788893113070776000,10.983776123046875,-2.5987532138824463,0.3453693389892578,-1.7807540893554688
1788893113080799200,10.99379931640625,-3.484651565551758,1.1252903938293457,-1.4015207290649414
1788893113090822700,11.00382275390625,-3.978954315185547,1.9693007469177246,-1.025743007659912
1788893113100851500,11.0138515625,-4.2365241050720215,2.604112148284912,-0.6561031341552734
1788893113110867700,11.02386767578125,-4.3976922035217285,3.115635871887207,-0.22034692764282227
1788893113120884200,11.03388427734375,-4.430229663848877,3.499022960662842,0.20940637588500977
1788893113130901000,11.04390087890625,-4.392587661743164,3.811387062072754,0.5655126571655273
1788893113140918500,11.05391845703125,-4.258122444152832,4.051984786987305,0.8793075084686279
1788893113150936300,11.063936279296875,-3.935060977935791,4.190427780151367,1.1284923553466797
1788893113160955100,11.073955078125,-3.5514800548553467,4.252779483795166,1.2733633518218994
1788893113170975000,11.08397509765625,-3.13938570022583,4.264553070068359,1.2660868167877197
1788893113180995300,11.093995361328124,-2.6693918704986572,4.22178840637207,1.0453517436981201
1788893113191016700,11.1040166015625,-2.1315791606903076,4.096248626708984,0.7276344299316406
1788893113201039000,11.1140390625,-1.5587882995605469,3.778752326965332,0.4677867889404297
1788893113211062000,11.12406201171875,-1.013275146484375,3.4141769409179688,-0.011085033416748047
1788893113221085700,11.134085693359374,-0.40598201751708984,2.922478199005127,-0.5945549011230469
1788893113231110000,11.14410986328125,0.28318357467651367,2.2858142852783203,-0.9831390380859375
1788893113241134600,11.154134521484375,0.9846594333648682,1.584752082824707,-1.1148371696472168
1788893113251159600,11.16415966796875,1.663280725479126,0.9266357421875,-1.1746253967285156
1788893113261184500,11.1741845703125,2.240175485610962,0.291445255279541,-1.3589177131652832
1788893113271208700,11.184208740234375,2.701115608215332,-0.26819419860839844,-1.4852228164672852
1788893113281230000,11.19422998046875,3.0365960597991943,-0.5814523696899414,-1.520738124847412
1788893113291251500,11.20425146484375,3.277808666229248,-0.6977581977844238,-1.612220287322998
1788893113301270000,11.21427001953125,3.2591373920440674,-0.7524023056030273,-1.6838030815124512
1788893113311288800,11.224288818359375,3.0265183448791504,-0.6227240562438965,-1.7415428161621094
1788893113321308000,11.234307861328125,2.685929298400879,-0.4797368049621582,-1.8489813804626465
1788893113331327200,11.2443271484375,2.287905216217041,-0.5234532356262207,-2.54708194732666
1788893113341347000,11.25434716796875,1.814432144165039,-0.6015963554382324,-3.326545238494873
1788893113351367400,11.264367431640625,1.5009393692016602,-0.8497333526611328,-3.724588394165039
1788893113361388300,11.27438818359375,1.3420581817626953,-1.1074061393737793,-3.929626941680908
1788893113371409400,11.284409423828125,1.3344841003417969,-1.2615795135498047,-4.0227274894714355
1788893113381431300,11.294431396484375,1.1935138702392578,-1.7442307472229004,-4.127241134643555
1788893113391453200,11.304453125,0.9273552894592285,-1.8801116943359375,-3.881603717803955
1788893113401475800,11.314475830078125,0.797116756439209,-1.6317839622497559,-3.082956314086914
1788893113411498800,11.324498779296874,0.9454150199890137,-1.3431692123413086,-2.264345645904541
1788893113421521700,11.334521728515625,0.9915361404418945,-1.0800857543945312,-1.2104496955871582
1788893113431544800,11.344544921875,0.820805549621582,-0.8279967308044434,-0.09038782119750977
1788893113441568300,11.354568359375,0.452484130859375,-0.42797327041625977,0.7733893394470215
1788893113451597000,11.36459716796875,0.033061981201171875,0.0436859130859375,1.4887442588806152
1788893113461613600,11.374613525390625,-0.38172101974487305,0.5113496780395508,2.082179307937622
1788893113471630600,11.384630615234375,-0.6749176979064941,0.9794759750366211,2.4757943153381348
1788893113481647600,11.394647705078125,-0.8987393379211426,1.4260210990905762,2.635775327682495
1788893113491665200,11.4046650390625,-1.1062064170837402,1.7503128051757812,2.6106600761413574
1788893113501683500,11.414683349609374,-1.1998310089111328,1.868767261505127,2.453248977661133
1788893113511702500,11.42470263671875,-1.2022976875305176,1.802140712738037,2.1400771141052246
1788893113521722000,11.43472216796875,-1.094881534576416,1.5750112533569336,1.666266918182373
1788893113531742700,11.44474267578125,-0.7951459884643555,1.2255182266235352,1.0872726440429688
1788893113541764000,11.45476416015625,-0.3413372039794922,0.7490897178649902,0.5818619728088379
1788893113551786200,11.4647861328125,0.34578752517700195,0.2669553756713867,-0.12337493896484375
1788893113561809200,11.47480908203125,1.1627388000488281,-0.22484540939331055,-0.8329081535339355
1788893113571832800,11.484832763671875,1.9750852584838867,-0.6527252197265625,-1.2516698837280273
1788893113581856800,11.494856689453124,2.523404598236084,-0.7889952659606934,-1.3711333274841309
1788893113591881200,11.504881103515626,2.8618040084838867,-0.7866668701171875,-1.6374492645263672
1788893113601906000,11.514906005859375,3.085986614227295,-0.6922087669372559,-1.8066606521606445
1788893113611930600,11.5249306640625,3.042642593383789,-0.47964906692504883,-1.7422213554382324
1788893113621954600,11.53495458984375,2.6518821716308594,-0.1263256072998047,-1.4603281021118164
1788893113631976000,11.544975830078124,1.909860610961914,0.14928436279296875,-1.2894096374511719
1788893113641994500,11.554994384765624,1.055863380432129,0.43924665451049805,-1.1734929084777832
1788893113652013300,11.565013427734375,0.09408092498779297,0.7626457214355469,-0.8874263763427734
1788893113662032400,11.575032470703125,-0.8926739692687988,1.1048846244812012,-0.4038729667663574
1788893113672052000,11.585052001953125,-1.7462491989135742,1.4081215858459473,0.036865234375
1788893113682071800,11.59507177734375,-2.4255294799804688,1.6354947090148926,0.3201746940612793
1788893113692092000,11.605091796875,-2.9391534328460693,1.7335214614868164,0.45102596282958984
1788893113702112800,11.61511279296875,-3.24299693107605,1.8681507110595703,0.530029296875
1788893113712134100,11.625134033203125,-3.370272397994995,2.162219524383545,0.6888504028320312
1788893113722155800,11.63515576171875,-3.2787716388702393,2.2890853881835938,0.7748737335205078
1788893113732178000,11.645177978515624,-2.9326300621032715,2.2318453788757324,0.8975205421447754
1788893113742200300,11.655200439453125,-2.4323947429656982,2.044142723083496,1.1252872943878174
1788893113752223200,11.66522314453125,-1.8942322731018066,1.6791372299194336,1.4865970611572266
1788893113762246400,11.675246337890625,-1.327476978302002,1.3686466217041016,1.6234982013702393
1788893113772269600,11.68526953125,-0.6746020317077637,1.132948398590088,1.615138053894043
1788893113782292700,11.695292724609375,-0.028692245483398438,0.8911795616149902,1.6543383598327637
1788893113792321500,11.705321533203126,0.4326443672180176,0.6119909286499023,1.7812631130218506
1788893113802338300,11.71533837890625,0.7295184135437012,0.427858829498291,1.9650657176971436
1788893113812355000,11.72535498046875,0.8126091957092285,0.33791494369506836,2.129014730453491
1788893113822372000,11.7353720703125,0.7063784599304199,0.32811450958251953,2.1732661724090576
1788893113832390000,11.745389892578125,0.4538917541503906,0.3223891258239746,2.0884220600128174
1788893113842408000,11.755407958984375,0.22964239120483398,0.31722402572631836,1.7956020832061768
1788893113852427000,11.765427001953125,0.15985822677612305,0.27942371368408203,1.360745906829834
1788893113862446800,11.77544677734375,0.24687957763671875,0.20329856872558594,1.0665302276611328
1788893113872467200,11.78546728515625,0.3033127784729004,0.07912826538085938,1.0899853706359863
1788893113882488800,11.79548876953125,0.4635896682739258,-0.1545400619506836,0.6189231872558594
1788893113892511000,11.805510986328125,0.7647171020507812,-0.36536741256713867,-0.0013709068298339844
1788893113902534000,11.815533935546876,0.9249639511108398,-0.7484116554260254,-0.22326040267944336
1788893113912557300,11.825557373046875,0.9116759300231934,-1.2374353408813477,-0.6501016616821289
1788893113922581500,11.83558154296875,0.7564530372619629,-1.6575045585632324,-1.2731919288635254
1788893113932606000,11.84560595703125,0.6113619804382324,-1.9463167190551758,-2.093376636505127
1788893113942630400,11.85563037109375,0.6350555419921875,-2.1652026176452637,-2.943559169769287
1788893113952655400,11.8656552734375,0.8000516891479492,-2.3551225662231445,-3.352062702178955
1788893113962679300,11.87567919921875,0.9275352954864502,-2.5817313194274902,-3.5658645629882812
1788893113972700700,11.88570068359375,1.081482172012329,-2.830167293548584,-3.668672561645508
1788893113982719200,11.89571923828125,1.2929086685180664,-2.9860944747924805,-3.437042236328125
1788893113992738000,11.905738037109375,1.53251314163208,-3.000783920288086,-2.805974006652832
1788893114002757000,11.915757080078125,1.6731014251708984,-2.810230255126953,-1.9538297653198242
1788893114012776400,11.9257763671875,1.573500156402588,-2.441864013671875,-1.0485191345214844
1788893114022796300,11.93579638671875,1.1596951484680176,-2.0002050399780273,-0.10892915725708008
1788893114032816600,11.945816650390626,0.5779714584350586,-1.5036911964416504,0.8033695220947266
1788893114042837200,11.955837158203124,0.039478302001953125,-0.9662647247314453,1.5498766899108887
1788893114052858600,11.965858642578125,-0.3852205276489258,-0.49358272552490234,2.1405062675476074
1788893114062880300,11.97588037109375,-0.6982316970825195,-0.1486377716064453,2.532658100128174
1788893114072902400,11.98590234375,-0.9228997230529785,0.07674360275268555,2.683358669281006
1788893114082925000,11.995925048828125,-1.0219924449920654,0.18057680130004883,2.6068825721740723
1788893114092947700,12.00594775390625,-0.9768459796905518,0.10797595977783203,2.399355411529541
1788893114102971000,12.015970947265625,-0.752539873123169,-0.1576976776123047,2.095585346221924
1788893114112994000,12.025994140625,-0.49056220054626465,-0.5171465873718262,1.6742730140686035
1788893114123017500,12.036017578125,-0.22164463996887207,-0.9713573455810547,0.8944168090820312
1788893114133046300,12.04604638671875,0.03737807273864746,-1.5105156898498535,-0.21821928024291992
1788893114143062800,12.056062744140625,0.2158660888671875,-1.985365390777588,-1.1426219940185547
1788893114153079600,12.06607958984375,0.31027984619140625,-2.370572566986084,-1.7440752983093262
1788893114163096800,12.076096923828125,0.2804293632507324,-2.55845308303833,-2.055800437927246
1788893114173114400,12.0861142578125,0.20080161094665527,-2.6093673706054688,-2.323148727416992
1788893114183132700,12.096132568359375,0.09104180335998535,-2.5321812629699707,-2.530515193939209
1788893114193151500,12.1061513671875,-0.0871286392211914,-2.3935718536376953,-2.571227550506592
1788893114203171300,12.11617138671875,-0.3670041561126709,-2.111690044403076,-2.439149856567383
1788893114213192000,12.12619189453125,-0.6866543292999268,-1.622042179107666,-2.1728382110595703
1788893114223213300,12.13621337890625,-0.9882757663726807,-1.0226306915283203,-1.7242546081542969
1788893114233235500,12.1462353515625,-1.252626895904541,-0.3592648506164551,-1.2886238098144531
1788893114243258400,12.15625830078125,-1.4576609134674072,0.3068108558654785,-0.8076629638671875
1788893114253282000,12.166281982421875,-1.6534018516540527,0.9324069023132324,-0.31807470321655273
1788893114263306000,12.176305908203124,-1.763364315032959,1.5114717483520508,0.13805103302001953
1788893114273330400,12.186330322265626,-1.8364546298980713,1.9893989562988281,0.628537654876709
1788893114283355100,12.196355224609375,-1.8933253288269043,2.3881473541259766,1.0916385650634766
1788893114293379800,12.2063798828125,-1.9600520133972168,2.7442145347595215,1.4459261894226074
1788893114303403800,12.21640380859375,-1.9772800207138062,3.0553126335144043,1.7297711372375488
1788893114313425200,12.226425048828125,-1.9430735111236572,3.319187641143799,1.933875560760498
1788893114323443700,12.236443603515625,-1.814194917678833,3.556955337524414,2.0393195152282715
1788893114333462500,12.246462646484375,-1.628342866897583,3.77569580078125,2.103966236114502
1788893114343481600,12.256481689453125,-1.4035757780075073,3.9440255165100098,2.0862174034118652
1788893114353501000,12.2665009765625,-1.0910327434539795,4.039741039276123,1.9838075637817383
1788893114363520800,12.276520751953125,-0.7759222984313965,4.0029144287109375,1.8659882545471191
1788893114373541000,12.286541015625,-0.5143377780914307,3.774196147918701,1.8209023475646973
1788893114383562000,12.29656201171875,-0.26595139503479004,3.601167678833008,1.53922700881958
1788893114393583000,12.3065830078125,0.005246639251708984,3.314680576324463,0.9473366737365723
1788893114403605000,12.31660498046875,0.24733209609985352,2.8698744773864746,0.2720928192138672
1788893114413627100,12.326627197265625,0.5102577209472656,2.356590747833252,-0.3297843933105469
1788893114423649500,12.3366494140625,0.7539756298065186,1.8373007774353027,-0.8996362686157227
1788893114433672400,12.34667236328125,1.0948905944824219,1.3131542205810547,-1.5506176948547363
1788893114443695400,12.3566953125,1.4468789100646973,0.668907642364502,-2.0258493423461914
1788893114453718800,12.36671875,1.735752820968628,-0.030046939849853516,-2.234853744506836
1788893114463742000,12.376741943359375,1.817716360092163,-0.726747989654541,-2.4745497703552246
1788893114473770800,12.386770751953126,1.7375781536102295,-1.1786932945251465,-3.019932270050049
1788893114483787500,12.39678759765625,1.5958235263824463,-1.2555170059204102,-3.5348057746887207
1788893114493804300,12.40680419921875,1.4270007610321045,-1.2012825012207031,-3.7621169090270996
1788893114503821300,12.4168212890625,1.2751638889312744,-1.3484411239624023,-4.191451072692871
1788893114513839000,12.426839111328125,1.2057292461395264,-1.5001029968261719,-4.598049640655518
1788893114523857200,12.436857177734375,0.9793767929077148,-1.628305435180664,-4.0604376792907715
1788893114533876200,12.446876220703125,0.6929192543029785,-1.8824186325073242,-3.9341492652893066
1788893114543895800,12.456895751953125,0.5151638984680176,-1.9719386100769043,-4.027832508087158
1788893114553916400,12.46691650390625,0.5244846343994141,-1.649724006652832,-3.905035972595215
1788893114563937800,12.476937744140624,0.37906312942504883,-1.7959856986999512,-3.855440616607666
1788893114573960200,12.486960205078125,0.02839040756225586,-1.6552090644836426,-3.3449196815490723
1788893114583983000,12.496983154296874,-0.021480560302734375,-1.293309211730957,-2.7860846519470215
1788893114594006500,12.507006591796875,0.25719308853149414,-0.9924817085266113,-2.2638845443725586
1788893114604030700,12.51703076171875,0.5223960876464844,-0.6418094635009766,-1.3891777992248535
1788893114614055000,12.527054931640626,0.6283125877380371,-0.30565786361694336,-0.41753149032592773
1788893114624079600,12.53707958984375,0.5643539428710938,0.08526754379272461,0.4498763084411621
1788893114634104300,12.547104248046875,0.268435001373291,0.523531436920166,1.2665910720825195
1788893114644128500,12.55712841796875,-0.22110986709594727,0.9600439071655273,1.955648422241211
1788893114654149600,12.567149658203125,-0.7716939449310303,1.4312195777893066,2.459231376647949
1788893114664168200,12.577168212890625,-1.1946797370910645,1.9244990348815918,2.7249510288238525
1788893114674187000,12.58718701171875,-1.5847854614257812,2.3545737266540527,3.1259655952453613
1788893114684206000,12.5972060546875,-1.9371418952941895,2.6070327758789062,3.4993557929992676
1788893114694225700,12.6072255859375,-2.2657315731048584,2.8250904083251953,3.501758098602295
1788893114704245500,12.61724560546875,-2.4321341514587402,2.958705425262451,3.193424940109253
1788893114714265900,12.627265869140626,-2.394073486328125,3.01890230178833,2.764368772506714
1788893114724286500,12.637286376953124,-2.076559066772461,2.867494583129883,2.1803488731384277
1788893114734307800,12.647307861328125,-1.3884341716766357,2.476374626159668,1.4197540283203125
1788893114744329500,12.65732958984375,-0.5162951946258545,1.8042593002319336,0.48351335525512695
1788893114754351600,12.6673515625,0.6096539497375488,0.8113613128662109,-1.045536994934082
1788893114764374300,12.677374267578125,1.6997082233428955,-0.5368695259094238,-2.5857625007629395
1788893114774397000,12.68739697265625,2.5992252826690674,-1.8935508728027344,-3.128312110900879
1788893114784420000,12.697420166015625,3.3216848373413086,-2.8550586700439453,-3.0225067138671875
1788893114794443300,12.707443359375,3.7361981868743896,-3.186096668243408,-2.9935035705566406
1788893114804466700,12.717466796875,3.9667489528656006,-2.913701057434082,-3.213202476501465
1788893114814495200,12.7274951171875,3.8061814308166504,-2.241755962371826,-3.192559242248535
1788893114824512000,12.737511962890625,3.3474581241607666,-1.6979284286499023,-3.2311129570007324
