time,seconds_elapsed,z,y,x
1788893102237826800,0.150826904296875,0.3952127993106842,-0.02210422046482563,-0.11318425834178925
1788893102247842600,0.160842529296875,0.5305013060569763,0.20692746341228485,-0.16112112998962402
1788893102257858600,0.170858642578125,0.6231792569160461,0.42850229144096375,-0.21544957160949707
1788893102267875000,0.180875,0.6689855456352234,0.568051815032959,-0.2612559199333191
1788893102277891800,0.190891845703125,0.6455497741699219,0.5978792309761047,-0.32091066241264343
1788893102287909600,0.20090966796875,0.5944170951843262,0.6564686894416809,-0.3837612271308899
1788893102297928200,0.21092822265625,0.5613939166069031,0.7608645558357239,-0.45619916915893555
1788893102307947500,0.220947509765625,0.5592634081840515,0.8950877785682678,-0.5286371111869812
1788893102317968000,0.2309677734375,0.5869602560997009,1.0026793479919434,-0.6010749936103821
1788893102327989000,0.240989013671875,0.6476802825927734,1.044224739074707,-0.6799045205116272
1788893102338011100,0.25101123046875,0.7510108947753906,0.9739173054695129,-0.7576687932014465
1788893102348034000,0.261033935546875,0.8660593628883362,0.8098666667938232,-0.8247803449630737
1788893102358057700,0.2710576171875,0.9534109830856323,0.5797697305679321,-0.8737825155258179
1788893102368082000,0.28108203125,0.997086763381958,0.3315632939338684,-0.8844351172447205
1788893102378106400,0.2911064453125,0.9949562549591064,0.10679268091917038,-0.8503466844558716
1788893102388131300,0.30113134765625,0.9683246612548828,-0.0732368752360344,-0.7843003273010254
1788893102398156300,0.31115625,0.9267793893814087,-0.1808284968137741,-0.7086666226387024
1788893102408180700,0.3211806640625,0.8617982864379883,-0.19893798232078552,-0.6490118503570557
1788893102418201900,0.331201904296875,0.80001300573349,-0.1861548274755478,-0.6213150024414062
1788893102428223000,0.341222900390625,0.7765771746635437,-0.20106850564479828,-0.629837155342102
1788893102438241300,0.3512412109375,0.7957519292831421,-0.28628960251808167,-0.6745781898498535
1788893102448260000,0.361260009765625,0.8575372099876404,-0.4343612492084503,-0.7395592927932739
1788893102458279000,0.37127880859375,0.9640635848045349,-0.5227781534194946,-0.7917572259902954
1788893102468298200,0.38129833984375,1.0918952226638794,-0.5270391702651978,-0.7917572259902954
1788893102478317800,0.39131787109375,1.1643331050872803,-0.4247738718986511,-0.7544729709625244
1788893102488338000,0.401337890625,1.1643331050872803,-0.2564622163772583,-0.6937529444694519
1788893102498358500,0.411358642578125,1.0993521213531494,-0.09347688406705856,-0.6255760788917542
1788893102508379600,0.421379638671875,0.988564670085907,0.00985368900001049,-0.5723128914833069
1788893102518401300,0.4314013671875,0.8735162019729614,-0.007190529722720385,-0.5414202213287354
1788893102528423200,0.441423095703125,0.7946866750717163,-0.1478053331375122,-0.5318328738212585
1788893102538445600,0.451445556640625,0.7701855897903442,-0.35659700632095337,-0.529702365398407
1788893102548468200,0.46146826171875,0.8032087683677673,-0.5366265773773193,-0.5147886276245117
1788893102558491100,0.4714912109375,0.8607330322265625,-0.6335655450820923,-0.47537389397621155
1788893102568514300,0.481514404296875,0.8735162019729614,-0.5984118580818176,-0.41465386748313904
1788893102578537500,0.491537353515625,0.817057192325592,-0.450340211391449,-0.3464770019054413
1788893102588566000,0.50156591796875,0.6998782157897949,-0.2234390527009964,-0.28682222962379456
1788893102598582300,0.511582275390625,0.5496760606765747,0.026897907257080078,-0.2516685426235199
1788893102608598800,0.521598876953125,0.38775596022605896,0.20160114765167236,-0.24634221196174622
1788893102618615600,0.531615478515625,0.2258358895778656,0.27403905987739563,-0.2708432674407959
1788893102628632800,0.5416328125,0.08735162019729614,0.24421168863773346,-0.31025803089141846
1788893102638651000,0.55165087890625,-0.0031957910396158695,0.1249021589756012,-0.349672794342041
1788893102648669700,0.561669677734375,-0.03621896356344223,-0.05086633935570717,-0.38589176535606384
1788893102658689000,0.57168896484375,-0.026631591841578484,-0.22024326026439667,-0.40400123596191406
1788893102668709600,0.581709716796875,0.0010652636410668492,-0.32463908195495605,-0.39974018931388855
1788893102678730800,0.591730712890625,0.04793686419725418,-0.3225085735321045,-0.37736964225769043
1788893102688752600,0.601752685546875,0.11078742146492004,-0.22983063757419586,-0.3507380485534668
1788893102698775300,0.611775390625,0.1789642870426178,-0.11371689289808273,-0.33795487880706787
1788893102708798700,0.621798828125,0.245010644197464,-0.040213704109191895,-0.34434646368026733
1788893102718822700,0.63182275390625,0.3142527639865875,-0.04234423115849495,-0.3784348964691162
1788893102728846800,0.641846923828125,0.3760380744934082,-0.09454214572906494,-0.42850229144096375
1788893102738871300,0.651871337890625,0.433562308549881,-0.20106850564479828,-0.48070022463798523
1788893102748896000,0.66189599609375,0.47723811864852905,-0.3416832983493805,-0.5147886276245117
1788893102758920400,0.67192041015625,0.4665854871273041,-0.5387570858001709,-0.508397102355957
1788893102768941800,0.68194189453125,0.39840859174728394,-0.6005423665046692,-0.4828307330608368
1788893102778960100,0.691960205078125,0.3185138404369354,-0.4588623046875,-0.47111284732818604
1788893102788978700,0.701978759765625,0.20985694229602814,-0.36298859119415283,-0.47111284732818604
1788893102798997800,0.711997802734375,0.13422322273254395,-0.4269044101238251,-0.4679170548915863
1788893102809016800,0.722016845703125,0.11611373722553253,-0.5440834164619446,-0.4540686309337616
1788893102819036700,0.73203662109375,0.14807164669036865,-0.5749760270118713,-0.42850229144096375
1788893102829056800,0.742056884765625,0.19600850343704224,-0.5451486706733704,-0.39547911286354065
1788893102839077400,0.752077392578125,0.2396843135356903,-0.5036033987998962,-0.36778226494789124
1788893102849098500,0.762098388671875,0.26098960638046265,-0.4460791349411011,-0.35286858677864075
1788893102859120000,0.7721201171875,0.24394537508487701,-0.3470096290111542,-0.3635212182998657
1788893102869142000,0.78214208984375,0.18216007947921753,-0.1435442715883255,-0.4071970283985138
1788893102879164400,0.792164306640625,0.09587372839450836,0.11744531989097595,-0.4721781015396118
1788893102889187000,0.80218701171875,-0.018109481781721115,0.44235071539878845,-0.5328981280326843
1788893102899210000,0.8122099609375,-0.15446323156356812,0.6905571818351746,-0.5850960612297058
1788893102909233200,0.822233154296875,-0.2620548605918884,0.7906919121742249,-0.6213150024414062
1788893102919256300,0.83225634765625,-0.3153180480003357,0.8088014125823975,-0.6394245028495789
1788893102929284900,0.842284912109375,-0.28868645429611206,0.7800393104553223,-0.622380256652832
1788893102939301000,0.852301025390625,-0.1832253485918045,0.7139929533004761,-0.5573992133140564
1788893102949318000,0.86231787109375,-0.06072002649307251,0.6617950201034546,-0.4338286221027374
1788893102959334700,0.872334716796875,0.02450106292963028,0.6585992574691772,-0.26871275901794434
1788893102969352200,0.882352294921875,-0.008522109128534794,0.7885614037513733,-0.09400951862335205
1788893102979370200,0.892370361328125,-0.1928127259016037,0.9057404398918152,0.06151897460222244
1788893102989389000,0.90238916015625,-0.5155876278877258,0.9558078050613403,0.20532956719398499
1788893102999408600,0.91240869140625,-0.9001477956771851,0.982439398765564,0.3406180441379547
1788893103009429000,0.922428955078125,-1.2506195306777954,0.9941573143005371,0.45673179626464844
1788893103019450400,0.932450439453125,-1.525457501411438,0.9845699071884155,0.5515402555465698
1788893103029472300,0.94247216796875,-1.7235965728759766,0.9558078050613403,0.6165213584899902
1788893103039495200,0.9524951171875,-1.8535587787628174,0.894022524356842,0.6580666303634644
1788893103049518600,0.9625185546875,-1.9291924238204956,0.7981488108634949,0.6804371476173401
1788893103059542300,0.972542236328125,-1.9781945943832397,0.6703171730041504,0.6900244951248169
1788893103069566700,0.982566650390625,-2.0218703746795654,0.5563339591026306,0.6942855715751648
1788893103079591200,0.992591064453125,-2.0602197647094727,0.5020055174827576,0.6974813938140869
1788893103089616000,1.002615966796875,-2.0761988162994385,0.5222455263137817,0.6996119022369385
1788893103099639800,1.012639892578125,-2.0612852573394775,0.568051815032959,0.70174241065979
1788893103109661000,1.022660888671875,-2.0271966457366943,0.5872265696525574,0.7038729786872864
1788893103119682000,1.03268212890625,-1.9760640859603882,0.546746551990509,0.7081339955329895
1788893103129700600,1.04270068359375,-1.9206703901290894,0.4487423002719879,0.7187866568565369
1788893103139719200,1.05271923828125,-1.8642113208770752,0.34328120946884155,0.7432876825332642
1788893103149738000,1.062738037109375,-1.8024260997772217,0.293213814496994,0.7848330140113831
1788893103159757300,1.07275732421875,-1.7374449968338013,0.33475908637046814,0.8402267098426819
1788893103169777000,1.08277685546875,-1.6703333854675293,0.5105276107788086,0.8956204056739807
1788893103179797200,1.09279736328125,-1.6074827909469604,0.8141277432441711,0.936100423336029
1788893103189817900,1.10281787109375,-1.5446323156356812,1.1400984525680542,0.9478183388710022
1788893103199839000,1.1128388671875,-1.4753901958465576,1.4096101522445679,0.9329046607017517
1788893103209860400,1.1228603515625,-1.4104090929031372,1.597096562385559,0.890294075012207
1788893103219882500,1.132882568359375,-1.3528847694396973,1.664208173751831,0.8370308876037598
1788893103229905000,1.14290478515625,-1.2921648025512695,1.5981618165969849,0.7784414291381836
1788893103239927600,1.152927490234375,-1.2165310382843018,1.4255890846252441,0.7166560888290405
1788893103249950500,1.162950439453125,-1.123853087425232,1.1986879110336304,0.6506097912788391
1788893103259973600,1.1729736328125,-1.01413094997406,0.9867004752159119,0.580302357673645
1788893103269996800,1.182996826171875,-0.884168803691864,0.8119972348213196,0.5078644156455994
1788893103280025600,1.193025634765625,-0.7371624112129211,0.6372939944267273,0.4269044101238251
1788893103290041900,1.203041748046875,-0.5837644934654236,0.435959130525589,0.337422251701355
1788893103300058400,1.213058349609375,-0.43036651611328125,0.20160114765167236,0.23089589178562164
1788893103310075100,1.2230751953125,-0.27057695388793945,-0.07962846010923386,0.11478215456008911
1788893103320092700,1.2330927734375,-0.10546109825372696,-0.4077296555042267,-0.008788425475358963
1788893103330110700,1.24311083984375,0.066046342253685,-0.7347655892372131,-0.11957584321498871
1788893103340129300,1.25312939453125,0.23435799777507782,-1.0021467208862305,-0.2090579867362976
1788893103350148900,1.26314892578125,0.4005391299724579,-1.1736541986465454,-0.2697780132293701
1788893103360169200,1.273169189453125,0.5720465779304504,-1.2855068445205688,-0.30599698424339294
1788893103370190600,1.283190673828125,0.7446193099021912,-1.3792500495910645,-0.32091066241264343
1788893103380212500,1.29321240234375,0.8820382952690125,-1.4772543907165527,-0.32943278551101685
1788893103390235100,1.303235107421875,0.9779120087623596,-1.5624754428863525,-0.33902016282081604
1788893103400258600,1.313258544921875,1.039697289466858,-1.5869765281677246,-0.34860754013061523
1788893103410282500,1.323282470703125,1.06419837474823,-1.5209301710128784,-0.3635212182998657
1788893103420306700,1.333306640625,1.0535457134246826,-1.3440964221954346,-0.3890875577926636
1788893103430331100,1.3433310546875,1.0290446281433105,-1.0756499767303467,-0.4295675754547119
1788893103440355800,1.35335595703125,1.0130656957626343,-0.7741803526878357,-0.47537389397621155
1788893103450377700,1.363377685546875,1.0226531028747559,-0.4918854832649231,-0.5158539414405823
1788893103460399600,1.373399658203125,1.058872103691101,-0.2330264151096344,-0.5446160435676575
1788893103470421800,1.383421875,1.1281142234802246,-0.025300011038780212,-0.5563339591026306
1788893103480449300,1.39344921875,1.2197269201278687,0.14727269113063812,-0.546746551990509
1788893103490465300,1.40346533203125,1.3358405828475952,0.3028011918067932,-0.5115928649902344
1788893103500481500,1.4134814453125,1.465802788734436,0.11957584321498871,-0.4583296775817871
1788893103510498300,1.423498291015625,1.545697569847107,-1.1342394351959229,-0.44661179184913635
1788893103520515600,1.433515625,1.7001607418060303,-1.4239912033081055,-0.4902876019477844
1788893103530533400,1.443533447265625,1.939845085144043,-0.7283740043640137,-0.6426202654838562
1788893103540552000,1.453552001953125,2.168876886367798,0.2751043438911438,-0.8269109129905701
1788893103550571500,1.463571533203125,2.3627548217773438,0.8876309394836426,-1.0143972635269165
1788893103560592000,1.473591796875,2.436257839202881,1.352085828781128,-0.7608645558357239
1788893103570613000,1.483613037109375,2.3137526512145996,1.9518293142318726,-0.4402202069759369
1788893103580635100,1.49363525390625,2.082590341567993,2.1734042167663574,-0.4125233590602875
1788893103590658000,1.503657958984375,1.7960344552993774,2.1979053020477295,-0.31451907753944397
1788893103600681500,1.513681396484375,1.500956416130066,2.026397705078125,-0.11957584321498871
1788893103610705700,1.52370556640625,1.222922682762146,1.8687387704849243,0.023169483989477158
1788893103620730400,1.53373046875,0.9821730852127075,1.6460986137390137,0.08921582996845245
1788893103630755000,1.543755126953125,0.7701855897903442,1.4468942880630493,0.08282424509525299
1788893103640780000,1.553780029296875,0.5507413148880005,1.2903006076812744,-0.004527370445430279
1788893103650804200,1.56380419921875,0.37284228205680847,1.1837742328643799,-0.10146636515855789
1788893103660825300,1.573825439453125,0.26098960638046265,1.0783131122589111,-0.22716747224330902
1788893103670844000,1.583843994140625,0.23755379021167755,0.9025446176528931,-0.360325425863266
1788893103680862700,1.59386279296875,0.30466538667678833,0.651142418384552,-0.3262369930744171
1788893103690881500,1.603881591796875,0.4474107325077057,0.4487423002719879,-0.21012325584888458
1788893103700900900,1.61390087890625,0.6274402737617493,0.26871275901794434,-0.2090579867362976
1788893103710920700,1.623920654296875,0.867124617099762,0.22290641069412231,-0.2836264371871948
1788893103720940800,1.63394091796875,1.1547458171844482,0.25806012749671936,-0.41358861327171326
1788893103730961700,1.643961669921875,1.4295837879180908,0.2569948434829712,-0.6149234175682068
1788893103740982800,1.653982666015625,1.6767250299453735,0.1291632205247879,-0.7874961495399475
1788893103751004400,1.66400439453125,1.89297354221344,-0.03275685757398605,-0.9025446176528931
1788893103761026300,1.6740263671875,2.0463714599609375,-0.0732368752360344,-0.9792435765266418
1788893103771048700,1.684048583984375,2.148636817932129,-0.002929474925622344,-0.9590035676956177
1788893103781071400,1.6940712890625,2.2146830558776855,0.14194637537002563,-0.8311719298362732
1788893103791094500,1.704094482421875,2.1965737342834473,0.3304980397224426,-0.6937529444694519
1788893103801117400,1.714117431640625,1.9590197801589966,0.3091927766799927,-0.629837155342102
1788893103811140900,1.724140869140625,1.54995858669281,0.2005358785390854,-0.6884266138076782
1788893103821169400,1.73416943359375,1.2495542764663696,0.12809795141220093,-0.7118624448776245
1788893103831185700,1.744185546875,1.1494194269180298,0.005592633970081806,-0.6660560965538025
1788893103841202200,1.7542021484375,1.1696594953536987,-0.06151897460222244,-0.6490118503570557
1788893103851219000,1.764218994140625,1.2708594799041748,-0.03701791167259216,-0.6948181986808777
1788893103861236200,1.774236328125,1.398691177368164,-0.007190529722720385,-0.7821698188781738
1788893103871254000,1.78425390625,1.4871079921722412,0.0141147430986166,-0.885500431060791
1788893103881272800,1.79427294921875,1.5339796543121338,0.12809795141220093,-1.0026793479919434
1788893103891292400,1.80429248046875,1.5648722648620605,0.2324937880039215,-1.08363938331604
1788893103901312800,1.814312744140625,1.5062828063964844,0.2143843024969101,-1.1145321130752563
1788893103911334100,1.824334228515625,1.379516363143921,0.18029586970806122,-1.09109628200531
1788893103921356300,1.834356201171875,1.2442278861999512,0.0727042406797409,-1.0271804332733154
1788893103931379000,1.84437890625,1.0833730697631836,-0.028495801612734795,-0.9739173054695129
1788893103941402400,1.85440234375,0.9395625591278076,-0.05725792050361633,-0.9281109571456909
1788893103951426600,1.864426513671875,0.8447540402412415,-0.018908429890871048,-0.8812393546104431
1788893103961451000,1.874450927734375,0.8138614296913147,-0.009321057237684727,-0.7992140650749207
1788893103971475700,1.884475830078125,0.8372972011566162,-0.04980107396841049,-0.6820350289344788
1788893103981500400,1.89450048828125,0.8799077868461609,-0.0732368752360344,-0.5733781456947327
1788893103991524900,1.90452490234375,0.9150614738464355,-0.11904320865869522,-0.45193809270858765
1788893104001546000,1.9145458984375,0.9938910007476807,-0.20319904386997223,-0.3880222737789154
1788893104011564500,1.924564453125,1.1600720882415771,-0.2191779911518097,-0.4029359817504883
1788893104021583000,1.9345830078125,1.2367711067199707,-0.09241162240505219,-0.3965443968772888
1788893104031602200,1.944602294921875,1.1664637327194214,0.11851058155298233,-0.3230412006378174
1788893104041621500,1.95462158203125,1.0194573402404785,0.31878015398979187,-0.32091066241264343
1788893104051641300,1.964641357421875,0.884168803691864,0.15472954511642456,-0.32410645484924316
1788893104061661400,1.974661376953125,0.7009434700012207,0.31558436155319214,-0.28682222962379456
1788893104071682000,1.98468212890625,0.5017392039299011,0.5030707716941833,-0.052464235574007034
1788893104081703200,1.994703125,0.5219792127609253,0.22077588737010956,0.18722008168697357
1788893104091724800,2.004724853515625,0.6615287065505981,0.00985368900001049,0.2937464416027069
1788893104101747000,2.014746826171875,0.619983434677124,-0.03169159218668938,0.2564622163772583
1788893104111769300,2.024769287109375,0.5187833905220032,-0.009321057237684727,0.23622220754623413
1788893104121792000,2.0347919921875,0.50706547498703,0.04607265070080757,0.23089589178562164
1788893104131815000,2.04481494140625,0.5123918056488037,0.05459476262331009,0.18295903503894806
1788893104141838000,2.054838134765625,0.4559328258037567,0.07483477145433426,0.08815056830644608
1788893104151861200,2.064861328125,0.36005911231040955,0.08335687965154648,0.016777902841567993
1788893104161890000,2.07489013671875,0.28975170850753784,0.0727042406797409,-0.04500738903880119
1788893104171906600,2.084906494140625,0.23755379021167755,0.008788425475358963,-0.11318425834178925
1788893104181923000,2.094923095703125,0.15659375488758087,0.032224226742982864,-0.15579481422901154
1788893104191940000,2.104940185546875,0.06391581892967224,0.036485280841588974,-0.16005586087703705
1788893104201957600,2.11495751953125,0.02024000883102417,0.031158961355686188,-0.07909582555294037
1788893104211975700,2.1249755859375,0.06072002649307251,0.13342426717281342,0.0007989477599039674
1788893104221994500,2.134994384765625,0.122505322098732,0.2942790687084198,0.024234747514128685
1788893104232014000,2.14501416015625,0.18535587191581726,0.5073317885398865,0.002929474925622344
1788893104242034700,2.15503466796875,0.19387798011302948,0.7395592927932739,0.003994738683104515
1788893104252055800,2.165055908203125,0.14274533092975616,0.8897614479064941,0.029561065137386322
1788893104262078000,2.175077880859375,0.07776424288749695,0.7363634705543518,0.08069372177124023
1788893104272100900,2.185100830078125,-0.005326318088918924,0.500940203666687,0.21598219871520996
1788893104282124300,2.195124267578125,-0.11185268312692642,0.2804306447505951,0.33422645926475525
1788893104292148200,2.205148193359375,-0.2876211702823639,-0.04234423115849495,0.3278348743915558
1788893104302172400,2.21517236328125,-0.5475454926490784,-0.1765674501657486,0.270310640335083
1788893104312197000,2.225197021484375,-0.8735162019729614,-0.1392832249403,0.20106850564479828
1788893104322221800,2.235221923828125,-1.1877689361572266,-0.09880319982767105,0.13076111674308777
1788893104332245800,2.245245849609375,-1.3550153970718384,-0.23941799998283386,0.0636495053768158
1788893104342267100,2.25526708984375,-1.3230574131011963,-0.4769718050956726,0.012516847811639309
1788893104352285400,2.265285400390625,-1.1664637327194214,-0.5653886795043945,-0.026897907257080078
1788893104362304300,2.27530419921875,-0.9374319911003113,-0.45992758870124817,-0.07057371735572815
1788893104372323000,2.285322998046875,-0.6849645376205444,-0.17017586529254913,-0.08974846452474594
1788893104382342400,2.29534228515625,-0.5145223140716553,0.20799273252487183,-0.09081372618675232
1788893104392362200,2.3053623046875,-0.40586546063423157,0.4775044322013855,-0.12596742808818817
1788893104402382300,2.31538232421875,-0.3291664719581604,0.6064013242721558,-0.20586219429969788
1788893104412403200,2.3254033203125,-0.30360013246536255,0.7534077167510986,-0.2751043438911438
1788893104422424300,2.33542431640625,-0.3238401412963867,0.8599340915679932,-0.32091066241264343
1788893104432446000,2.345446044921875,-0.3675159513950348,0.961134135723114,-0.3464770019054413
1788893104442467800,2.3554677734375,-0.49108654260635376,1.0229194164276123,-0.26338642835617065
1788893104452490200,2.365490234375,-0.6711161136627197,1.1720563173294067,-0.1153147891163826
1788893104462513200,2.37551318359375,-0.8575372099876404,1.3456943035125732,0.010386320762336254
1788893104472536000,2.3855361328125,-1.0311752557754517,1.4149364233016968,0.09773793816566467
1788893104482559200,2.395559326171875,-1.1643331050872803,1.3414332866668701,0.16804534196853638
1788893104492582700,2.405582763671875,-1.2783163785934448,1.2040141820907593,0.24580958485603333
1788893104502611200,2.415611083984375,-1.3017522096633911,1.0708563327789307,0.32890015840530396
1788893104512627700,2.425627685546875,-1.2250531911849976,0.8088014125823975,0.40986019372940063
1788893104522644200,2.435644287109375,-1.1153310537338257,0.40400123596191406,0.48336338996887207
1788893104532661000,2.445660888671875,-0.9949562549591064,0.006657897960394621,0.5462139248847961
1788893104542678500,2.455678466796875,-0.9321056604385376,-0.1243695318698883,0.593085527420044
1788893104552696300,2.4656962890625,-0.8862993717193604,-0.138217955827713,0.6399571299552917
1788893104562715100,2.475715087890625,-0.8788425326347351,-0.4013380706310272,0.6868287324905396
1788893104572734700,2.485734619140625,-0.9150614738464355,-0.7816371917724609,0.7400919198989868
1788893104582755000,2.495755126953125,-0.9363667368888855,-0.9392961859703064,0.7741803526878357
1788893104592776400,2.5057763671875,-0.9161267280578613,-0.8391614556312561,0.5877591967582703
1788893104602798600,2.515798583984375,-0.7850993275642395,-0.8285087943077087,0.10199899226427078
1788893104612821200,2.5258212890625,-0.5880255103111267,-0.693220317363739,0.013582111336290836
1788893104622845000,2.535844970703125,-0.3802991211414337,-0.5472791790962219,-0.18349166214466095
1788893104632868900,2.545868896484375,-0.2577938139438629,-0.4546012580394745,-0.34328120946884155
1788893104642893300,2.555893310546875,-0.22903168201446533,-0.34381383657455444,-0.3315632939338684
1788893104652918000,2.56591796875,-0.18109482526779175,-0.261788547039032,-0.2186453640460968
1788893104662942700,2.575942626953125,-0.1555284857749939,-0.21278640627861023,-0.08655267208814621
1788893104672967200,2.58596728515625,-0.2311622053384781,-0.21598219871520996,0.08069372177124023
1788893104682988300,2.59598828125,-0.4005391299724579,-0.2798980176448822,0.27350643277168274
1788893104693006800,2.6060068359375,-0.5581981539726257,-0.36192330718040466,0.48016759753227234
1788893104703025700,2.616025634765625,-0.7073350548744202,-0.5004075765609741,0.6687192320823669
1788893104713044500,2.62604443359375,-0.8639287948608398,-0.626108705997467,0.8263782858848572
1788893104723064000,2.63606396484375,-0.9992172718048096,-0.7337003350257874,0.9542099237442017
1788893104733083600,2.646083740234375,-1.0673941373825073,-0.8657930493354797,1.0351699590682983
1788893104743104000,2.65610400390625,-1.1046783924102783,-1.0202562808990479,1.086302638053894
1788893104753124600,2.66612451171875,-1.123853087425232,-1.0777804851531982,1.1108036041259766
1788893104763146000,2.67614599609375,-1.1046783924102783,-1.0309089422225952,1.0926941633224487
1788893104773167600,2.686167724609375,-1.1025478839874268,-1.0042773485183716,1.0106688737869263
1788893104783189800,2.696189697265625,-1.1078741550445557,-0.9872331023216248,0.8796414732933044
1788893104793212200,2.706212158203125,-1.0748510360717773,-0.9701888561248779,0.7475487589836121
1788893104803234800,2.71623486328125,-1.0034784078598022,-0.9371656775474548,0.6207823753356934
1788893104813258000,2.726258056640625,-0.9065393805503845,-0.8924246430397034,0.48016759753227234
1788893104823281200,2.73628125,-0.7968171834945679,-0.8221172094345093,0.3736412227153778
1788893104833304300,2.74630419921875,-0.6988129615783691,-0.7177214026451111,0.2841590642929077
1788893104843332900,2.756332763671875,-0.6444845199584961,-0.6186518669128418,0.22024326026439667
1788893104853349000,2.76634912109375,-0.6263750195503235,-0.5494097471237183,0.1712411344051361
1788893104863365400,2.776365478515625,-0.6423539519309998,-0.48442864418029785,0.1339569091796875
1788893104873382100,2.786382080078125,-0.6828339695930481,-0.4258391261100769,0.09880319982767105
1788893104883399400,2.7963994140625,-0.7286403179168701,-0.41412124037742615,0.07430213689804077
1788893104893417500,2.80641748046875,-0.7755119204521179,-0.448209673166275,0.0732368752360344
1788893104903436000,2.81643603515625,-0.8223835229873657,-0.4950812757015228,0.10199899226427078
1788893104913455600,2.82645556640625,-0.867124617099762,-0.5494097471237183,0.17017586529254913
1788893104923476000,2.83647607421875,-0.8990825414657593,-0.6197171211242676,0.2788327634334564
1788893104933497300,2.846497314453125,-0.9310404062271118,-0.6889592409133911,0.4162517786026001
1788893104943519500,2.85651953125,-0.9555414915084839,-0.7315698266029358,0.571780264377594
1788893104953542400,2.86654248046875,-0.9747162461280823,-0.7379614114761353,0.739026665687561
1788893104963566000,2.876566162109375,-0.9864341020584106,-0.7070687413215637,0.8934898972511292
1788893104973590000,2.886590087890625,-1.017326831817627,-0.6463487148284912,1.0138646364212036
1788893104983614700,2.89661474609375,-1.0833730697631836,-0.5558013319969177,1.1001510620117188
1788893104993639700,2.9066396484375,-1.1579415798187256,-0.48975494503974915,1.1523489952087402
1788893105003664400,2.916664306640625,-1.2197269201278687,-0.448209673166275,1.1789805889129639
1788893105013688800,2.926688720703125,-1.260206937789917,-0.41412124037742615,1.1864373683929443
1788893105023710000,2.9367099609375,-1.2847079038619995,-0.41518649458885193,1.1800458431243896
1788893105033731300,2.9467314453125,-1.290034294128418,-0.41305598616600037,1.1672626733779907
1788893105043749600,2.95674951171875,-1.2815121412277222,-0.4269044101238251,1.1566100120544434
1788893105053768400,2.9667685546875,-1.269794225692749,-0.44288337230682373,1.1555447578430176
1788893105063787500,2.97678759765625,-1.2857731580734253,-0.3885549008846283,1.1619362831115723
1788893105073806800,2.986806884765625,-1.336905837059021,-0.2745717167854309,1.1821763515472412
1788893105083826700,2.99682666015625,-1.454084873199463,-0.14141374826431274,1.217329978942871
1788893105093846800,3.0068466796875,-1.6202659606933594,-0.016777902841567993,1.2705931663513184
1788893105103867600,3.01686767578125,-1.8290576934814453,0.0918789878487587,1.3206605911254883
1788893105113888800,3.026888671875,-2.082590341567993,0.14088112115859985,1.341965913772583
1788893105123910400,3.036910400390625,-2.367015838623047,0.09933583438396454,1.317464828491211
1788893105133932500,3.0469326171875,-2.64931058883667,-0.015712639316916466,1.2439615726470947
1788893105143955000,3.056954833984375,-2.9071044921875,-0.1808284968137741,1.1321089267730713
1788893105153977900,3.066977783203125,-3.106308698654175,-0.36724963784217834,1.0032119750976562
1788893105164000800,3.077000732421875,-3.2266836166381836,-0.5291697382926941,0.8924246430397034
1788893105174024000,3.08702392578125,-3.255445718765259,-0.6538055539131165,0.8167908787727356
1788893105184047000,3.097047119140625,-3.2107045650482178,-0.7294392585754395,0.7805719375610352
1788893105194076000,3.107075927734375,-3.159571886062622,-0.739026665687561,0.7965508699417114
1788893105204092200,3.117092041015625,-3.1467888355255127,-0.684698224067688,0.8700540661811829
1788893105214108700,3.127108642578125,-3.125483512878418,-0.6197171211242676,0.9723193645477295
1788893105224125400,3.13712548828125,-3.1020476818084717,-0.5739107728004456,1.0735194683074951
1788893105234142700,3.147142822265625,-3.0743508338928223,-0.5355613231658936,1.145957350730896
1788893105244160500,3.157160400390625,-3.0232181549072266,-0.5185170769691467,1.1875026226043701
1788893105254179300,3.167179443359375,-2.94225811958313,-0.5004075765609741,1.2034815549850464
1788893105264199000,3.177198974609375,-2.8559718132019043,-0.439687579870224,1.1864373683929443
1788893105274219500,3.187219482421875,-2.8016433715820312,-0.3640538454055786,1.0894984006881714
1788893105284240600,3.19724072265625,-2.7718160152435303,-0.21172115206718445,0.8583361506462097
1788893105294263000,3.207262939453125,-2.6855297088623047,-0.27670222520828247,0.6314350366592407
1788893105304286000,3.217285888671875,-2.504434823989868,-0.37151068449020386,0.5025381445884705
1788893105314309400,3.227309326171875,-2.281794786453247,-0.29268118739128113,0.4546012580394745
1788893105324333600,3.23733349609375,-2.0463714599609375,-0.16165375709533691,0.4205128252506256
1788893105334358000,3.24735791015625,-1.8141440153121948,-0.0732368752360344,0.38962018489837646
1788893105344383000,3.257383056640625,-1.6192007064819336,0.02157158963382244,0.3683148920536041
1788893105354407700,3.26740771484375,-1.4817817211151123,0.13768532872200012,0.35233595967292786
1788893105364432000,3.277431884765625,-1.398691177368164,0.21544957160949707,0.3502054214477539
1788893105374453200,3.287453369140625,-1.3592764139175415,0.34754225611686707,0.36298859119415283
1788893105384471600,3.297471435546875,-1.3262531757354736,0.33475908637046814,0.3779022693634033
1788893105394490400,3.307490478515625,-1.3017522096633911,0.45087283849716187,0.4258391261100769
1788893105404509400,3.317509521484375,-1.3102742433547974,0.5243760347366333,0.4162517786026001
1788893105414528800,3.32752880859375,-1.2985563278198242,0.23355905711650848,0.20532956719398499
1788893105424548600,3.337548583984375,-1.1941605806350708,0.0141147430986166,-0.01837579719722271
1788893105434568700,3.347568603515625,-1.0482194423675537,0.13022847473621368,-0.13768532872200012
1788893105444589600,3.357589599609375,-0.9044088125228882,0.5371592044830322,-0.11851058155298233
1788893105454610700,3.367610595703125,-0.7563371658325195,-0.15419691801071167,0.023169483989477158
1788893105464632300,3.37763232421875,-0.6849645376205444,-0.3747064769268036,0.21598219871520996
1788893105474654500,3.387654541015625,-0.6242445111274719,0.017310533672571182,0.4077296555042267
1788893105484676900,3.3976767578125,-0.574177086353302,0.3592601716518402,0.6410223841667175
1788893105494699800,3.40769970703125,-0.5826992392539978,0.5478118062019348,0.7944203615188599
1788893105504722700,3.41772265625,-0.678572952747345,0.5243760347366333,0.9371656775474548
1788893105514745900,3.427745849609375,-0.8500803709030151,0.4103928208351135,1.0351699590682983
1788893105524769000,3.43776904296875,-1.0439584255218506,0.24953800439834595,1.0894984006881714
1788893105534797800,3.4477978515625,-1.239966869354248,0.06418213248252869,1.1150647401809692
1788893105544814000,3.45781396484375,-1.4210617542266846,-0.10519478470087051,1.1097383499145508
1788893105554830600,3.46783056640625,-1.5425018072128296,-0.24154852330684662,1.04475736618042
1788893105564847600,3.47784765625,-1.6351796388626099,-0.3640538454055786,0.9424920082092285
1788893105574865000,3.487864990234375,-1.721466064453125,-0.37683701515197754,0.8157256245613098
1788893105584883000,3.497883056640625,-1.8269271850585938,-0.09241162240505219,0.7262434959411621
1788893105594901800,3.50790185546875,-1.9291924238204956,0.3518033027648926,0.7070687413215637
1788893105604921300,3.51792138671875,-1.9686071872711182,0.6543381810188293,0.7464835047721863
1788893105614941700,3.527941650390625,-1.9334535598754883,0.7736477255821228,0.790159285068512
1788893105624963000,3.537963134765625,-1.7917734384536743,0.6021402478218079,0.6772413849830627
1788893105634985000,3.54798486328125,-1.5105438232421875,0.11638005077838898,-0.1525990217924118
1788893105645008000,3.5580078125,-1.2559458017349243,-0.2649843394756317,-0.7640603184700012
1788893105655031300,3.56803125,-1.0418277978897095,-0.24900537729263306,-1.217862606048584
1788893105665055500,3.578055419921875,-0.8181225061416626,-0.011451584286987782,-1.6503597497940063
1788893105675080000,3.588079833984375,-0.5645897388458252,0.09827057272195816,-2.0200061798095703
1788893105685104400,3.5981044921875,-0.2833601236343384,0.10892320424318314,-2.3768694400787354
1788893105695129300,3.60812939453125,-0.010652636177837849,0.1579253375530243,-2.6485116481781006
1788893105705154000,3.618154052734375,0.2822948694229126,0.2889527678489685,-2.845585584640503
1788893105715175200,3.628175048828125,0.5986781716346741,0.5712476372718811,-2.910566568374634
1788893105725193700,3.63819384765625,0.9491499066352844,0.8759130239486694,-2.859433889389038
1788893105735212500,3.648212646484375,1.3060132265090942,1.1699258089065552,-2.677273750305176
1788893105745231600,3.658231689453125,1.6554197072982788,1.4096101522445679,-2.4152190685272217
1788893105755251000,3.6682509765625,1.9462367296218872,1.565138578414917,-2.1872525215148926
1788893105765270800,3.678270751953125,2.1209399700164795,1.582182765007019,-2.045572519302368
1788893105775291100,3.688291015625,2.1070914268493652,1.5140058994293213,-1.9603514671325684
1788893105785311700,3.698311767578125,1.9259966611862183,1.430915355682373,-1.8463681936264038
1788893105795332900,3.708332763671875,1.6202659606933594,1.3361068964004517,-1.652490258216858
1788893105805354500,3.7183544921875,1.2303794622421265,1.2711257934570312,-1.4596774578094482
1788893105815376600,3.728376708984375,0.8554067015647888,1.2231889963150024,-1.3414332866668701
1788893105825399000,3.73839892578125,0.5347623229026794,1.1720563173294067,-1.1976226568222046
1788893105835422000,3.748421875,0.2961432933807373,1.1560773849487305,-1.0591384172439575
1788893105845444900,3.75844482421875,0.1459411233663559,1.1965574026107788,-0.9526119828224182
1788893105855468000,3.768468017578125,0.06924213469028473,1.2391679286956787,-0.8503466844558716
1788893105865491500,3.778491455078125,0.07456845790147781,1.242363691329956,-0.7736477255821228
1788893105875520000,3.78852001953125,0.16405059397220612,1.2136015892028809,-0.735298216342926
1788893105885536500,3.79853662109375,0.32810118794441223,1.1731215715408325,-0.7416898012161255
1788893105895552800,3.808552734375,0.5507413148880005,1.1560773849487305,-0.7928224802017212
1788893105905569800,3.81856982421875,0.8010782599449158,1.1795132160186768,-0.8791088461875916
1788893105915587000,3.828587158203125,1.0450236797332764,1.2221237421035767,-0.9803088903427124
1788893105925605000,3.838605224609375,1.2538152933120728,1.2700605392456055,-1.0729868412017822
1788893105935624000,3.8486240234375,1.4199963808059692,1.3190627098083496,-1.1486204862594604
1788893105945643500,3.8586435546875,1.5435670614242554,1.3691301345825195,-1.205079436302185
1788893105955664000,3.868663818359375,1.6287881135940552,1.4106754064559937,-1.242363691329956
1788893105965685200,3.878685302734375,1.704421877861023,1.4319806098937988,-1.2508858442306519
1788893105975707400,3.888707275390625,1.7949692010879517,1.4415680170059204,-1.2285152673721313
1788893105985730300,3.898730224609375,1.902560830116272,1.4468942880630493,-1.1869699954986572
1788893105995753700,3.908753662109375,2.02826189994812,1.4777870178222656,-1.1486204862594604
1788893106005778000,3.91877783203125,2.1710073947906494,1.5491596460342407,-1.1358373165130615
1788893106015802400,3.92880224609375,2.3276009559631348,1.6301196813583374,-1.1603384017944336
1788893106025827000,3.9388271484375,2.4778032302856445,1.7132102251052856,-1.225319504737854
1788893106035852000,3.94885205078125,2.6322665214538574,1.778191328048706,-1.3329111337661743
1788893106045876200,3.958876220703125,2.7995128631591797,1.820801854133606,-1.4671343564987183
1788893106055897600,3.968897705078125,2.9742159843444824,1.8729997873306274,-1.6056185960769653
1788893106065918700,3.978918701171875,3.1393320560455322,1.8612818717956543,-1.7132102251052856
1788893106075937300,3.988937255859375,3.284207820892334,1.7973660230636597,-1.7643429040908813
1788893106085955800,3.998955810546875,3.402451992034912,1.7100144624710083,-1.7387765645980835
1788893106095975000,4.008974853515625,3.4844772815704346,1.602422833442688,-1.6514250040054321
1788893106105994200,4.018994140625,3.5036520957946777,1.4958964586257935,-1.5331807136535645
1788893106116014000,4.02901416015625,3.4653027057647705,1.3478248119354248,-1.3872395753860474
1788893106126034400,4.039034423828125,3.3768856525421143,1.158207893371582,-1.217862606048584
1788893106136055000,4.049054931640625,3.2714245319366455,0.9376983046531677,-1.0154625177383423
1788893106146076200,4.059076171875,3.175550937652588,0.7044056057929993,-0.8013445734977722
1788893106156098000,4.06909814453125,3.09991717338562,0.481765478849411,-0.6000097393989563
1788893106166120000,4.079119873046875,3.046653985977173,0.27190855145454407,-0.4125233590602875
1788893106176142600,4.089142578125,3.015761375427246,0.07696529477834702,-0.24421168863773346
1788893106186165200,4.099165283203125,3.021087646484375,-0.09986846894025803,-0.105727419257164
1788893106196188200,4.109188232421875,3.0594372749328613,-0.21598219871520996,-0.005592633970081806
1788893106206211300,4.11921142578125,3.1233530044555664,-0.26285380125045776,0.03808317333459854
1788893106216234800,4.12923486328125,3.2128350734710693,-0.2756369709968567,0.014647374860942364
1788893106226263300,4.13926318359375,3.339601516723633,-0.24900537729263306,-0.06311687082052231
1788893106236279800,4.14927978515625,3.501521587371826,-0.19680745899677277,-0.19734008610248566
1788893106246296300,4.15929638671875,3.711378574371338,-0.12756532430648804,-0.39547911286354065
1788893106256313300,4.169313232421875,3.978759765625,-0.0018642114009708166,-0.6585992574691772
1788893106266331000,4.179330810546875,4.2642502784729,0.16857796907424927,-0.9771130681037903
1788893106276349000,4.189348876953125,4.493281841278076,0.33369383215904236,-1.3350416421890259
1788893106286367700,4.19936767578125,4.620048522949219,0.43276336789131165,-1.7132102251052856
1788893106296387300,4.20938720703125,4.623244285583496,0.47004759311676025,-2.0636820793151855
1788893106306407700,4.21940771484375,4.4868903160095215,0.546746551990509,-2.334259033203125
1788893106316429000,4.229428955078125,4.248271465301514,0.7012097835540771,-2.5057663917541504
1788893106326451200,4.239451171875,3.9617154598236084,0.8503466844558716,-2.617619037628174
1788893106336473900,4.249473876953125,3.641071081161499,0.9877657294273376,-2.706035852432251
1788893106346497300,4.259497314453125,3.318296194076538,1.158207893371582,-2.7646255493164062
1788893106356521200,4.269521240234375,3.0146961212158203,1.3701953887939453,-2.7944529056549072
1788893106366545700,4.279545654296875,2.7302706241607666,1.5662038326263428,-2.8285412788391113
1788893106376570400,4.2895703125,2.4575631618499756,1.6876438856124878,-2.875412940979004
1788893106386595000,4.299594970703125,2.2061610221862793,1.7451682090759277,-2.9009792804718018
1788893106396619800,4.309619873046875,1.9739335775375366,1.7046881914138794,-2.880739212036133
1788893106406641000,4.319640869140625,1.771533489227295,1.5693997144699097,-2.7944529056549072
1788893106416659500,4.329659423828125,1.6064175367355347,1.3680648803710938,-2.6240105628967285
1788893106426678300,4.33967822265625,1.4498238563537598,1.1006836891174316,-2.3704779148101807
1788893106436697300,4.349697265625,1.2623374462127686,0.8066709041595459,-2.0338547229766846
1788893106446716700,4.359716552734375,1.0759162902832031,0.5318328738212585,-1.6407723426818848
1788893106456736500,4.369736572265625,0.8820382952690125,0.30173593759536743,-1.2636690139770508
1788893106466756600,4.379756591796875,0.6668550372123718,0.09720530360937119,-0.9568730592727661
1788893106476777500,4.389777587890625,0.4367581009864807,-0.10519478470087051,-0.7299718856811523
1788893106486798600,4.399798583984375,0.19068218767642975,-0.27244117856025696,-0.596813976764679
1788893106496820200,4.4098203125,-0.07669898122549057,-0.3587275445461273,-0.538224458694458
1788893106506842400,4.41984228515625,-0.3621896505355835,-0.3448790907859802,-0.5339633822441101
1788893106516864800,4.42986474609375,-0.6317013502120972,-0.24900537729263306,-0.5755086541175842
1788893106526887400,4.439887451171875,-0.8617982864379883,-0.09347688406705856,-0.6703171730041504
1788893106536910600,4.44991064453125,-1.0503499507904053,0.08655267208814621,-0.7874961495399475
1788893106546933800,4.459933837890625,-1.1920300722122192,0.25806012749671936,-0.8897614479064941
1788893106556957000,4.46995703125,-1.2910995483398438,0.39121806621551514,-0.9600688815116882
1788893106566985700,4.47998583984375,-1.3411669731140137,0.48496127128601074,-0.9941573143005371
1788893106577002000,4.490001953125,-1.3528847694396973,0.5478118062019348,-0.9877657294273376
1788893106587018200,4.500018310546875,-1.3422322273254395,0.5914876461029053,-0.9376983046531677
1788893106597035000,4.510034912109375,-1.3262531757354736,0.6170539855957031,-0.84821617603302
1788893106607052500,4.520052490234375,-1.3177311420440674,0.6213150024414062,-0.7289066314697266
1788893106617070300,4.5300703125,-1.324122667312622,0.6127929091453552,-0.5893571376800537
1788893106627089200,4.540089111328125,-1.3518195152282715,0.5957486629486084,-0.4391549229621887
1788893106637108700,4.550108642578125,-1.3954954147338867,0.5605949759483337,-0.28256118297576904
1788893106647129000,4.560129150390625,-1.454084873199463,0.508397102355957,-0.11424952745437622
1788893106657150500,4.570150390625,-1.520131230354309,0.44767704606056213,0.06578002870082855
1788893106667172900,4.5801728515625,-1.5819164514541626,0.3826959729194641,0.2522011697292328
1788893106677195800,4.59019580078125,-1.622396469116211,0.32091066241264343,0.43223071098327637
1788893106687219200,4.60021923828125,-1.634114384651184,0.26871275901794434,0.5909550189971924
1788893106697243400,4.610243408203125,-1.6351796388626099,0.21118851006031036,0.7241129875183105
1788893106707267800,4.620267822265625,-1.6181354522705078,0.13235901296138763,0.8391614556312561
1788893106717292800,4.630292724609375,-1.5915038585662842,0.03009369783103466,0.9307740926742554
1788893106727317500,4.6403173828125,-1.5531543493270874,-0.06684529036283493,1.0053426027297974
1788893106737341700,4.650341796875,-1.500956416130066,-0.14460954070091248,1.0681930780410767
1788893106747363000,4.660363037109375,-1.4327795505523682,-0.2181127369403839,1.1129342317581177
1788893106757381600,4.670381591796875,-1.340101718902588,-0.28735485672950745,1.1640667915344238
1788893106767400200,4.680400146484375,-1.2431626319885254,-0.3587275445461273,1.2450268268585205
1788893106777419300,4.690419189453125,-1.1536805629730225,-0.4311654567718506,1.3536838293075562
1788893106787438600,4.7004384765625,-1.051415205001831,-0.4450138807296753,1.4836459159851074
1788893106797458400,4.71045849609375,-0.9757815003395081,-0.4173170328140259,1.6370439529418945
1788893106807478800,4.720478759765625,-0.9715204238891602,-0.3970770239830017,1.7819197177886963
1788893106817499400,4.73049951171875,-1.058872103691101,-0.3736412227153778,1.8841850757598877
1788893106827520800,4.740520751953125,-1.215465784072876,-0.3683148920536041,1.9438397884368896
1788893106837542400,4.75054248046875,-1.391234278678894,-0.3789675533771515,1.9640798568725586
1788893106847564300,4.760564208984375,-1.5584807395935059,-0.3704454302787781,1.9534271955490112
1788893106857587000,4.7705869140625,-1.7108134031295776,-0.3406180441379547,1.937448263168335
1788893106867609600,4.780609619140625,-1.838645100593567,-0.22450430691242218,1.9257303476333618
1788893106877632500,4.790632568359375,-1.944106101989746,0.011984216049313545,1.920404076576233
1788893106887656000,4.800656005859375,-2.02826189994812,0.30599698424339294,1.9140124320983887
1788893106897679000,4.81067919921875,-2.0868513584136963,0.5744433999061584,1.8937724828720093
1788893106907707600,4.820707763671875,-2.144375801086426,0.7992140650749207,1.8469008207321167
1788893106917724000,4.830723876953125,-2.1965737342834473,1.006940484046936,1.7606145143508911
1788893106927740400,4.840740478515625,-2.2349231243133545,1.1763173341751099,1.619999647140503
1788893106937757200,4.850757080078125,-2.266880989074707,1.279647946357727,1.4303827285766602
1788893106947774700,4.860774658203125,-2.2849905490875244,1.3414332866668701,1.2247868776321411
1788893106957792500,4.87079248046875,-2.2892515659332275,1.3691301345825195,1.0383657217025757
1788893106967811300,4.880811279296875,-2.2839252948760986,1.3563469648361206,0.8956204056739807
1788893106977831200,4.8908310546875,-2.2690114974975586,1.3211932182312012,0.7986814379692078
1788893106987851500,4.9008515625,-2.2402493953704834,1.2732564210891724,0.7475487589836121
1788893106997873000,4.910872802734375,-2.2008347511291504,1.2210584878921509,0.7337003350257874
1788893107007895000,4.92089501953125,-2.1603546142578125,1.158207893371582,0.7464835047721863
1788893107017918000,4.93091796875,-2.09324312210083,1.0633994340896606,0.7944203615188599
1788893107027941400,4.94094140625,-1.9504977464675903,0.9494162201881409,0.8839024901390076
1788893107037965600,4.950965576171875,-1.726792335510254,0.84821617603302,1.0085383653640747
1788893107047990000,4.960989990234375,-1.4700638055801392,0.7757782340049744,1.163001537322998
1788893107058014700,4.9710146484375,-1.1888341903686523,0.6916224360466003,1.3483574390411377
1788893107068039400,4.981039306640625,-0.9470193982124329,0.546746551990509,1.5486270189285278
1788893107078063900,4.99106396484375,-0.8266445994377136,0.37204334139823914,1.7499618530273438
1788893107088085000,5.0010849609375,-0.8617982864379883,0.23142851889133453,1.941709280014038
1788893107098103600,5.011103515625,-1.02158784866333,0.1525990217924118,2.110020875930786
1788893107108122400,5.021122314453125,-1.3230574131011963,0.011984216049313545,2.214416742324829
1788893107118141400,5.031141357421875,-1.6948344707489014,-0.12650005519390106,2.2186777591705322
1788893107128160800,5.041160888671875,-2.059154510498047,-0.19467693567276,2.1291956901550293
1788893107138180600,5.0511806640625,-2.395777940750122,-0.23409168422222137,1.9608840942382812
1788893107148200700,5.06120068359375,-2.6770074367523193,-0.25007063150405884,1.7265260219573975
1788893107158221600,5.0712216796875,-2.8740813732147217,-0.2575274705886841,1.4538185596466064
1788893107168242700,5.08124267578125,-2.9699549674987793,-0.2426137924194336,1.1555447578430176
1788893107178264300,5.091264404296875,-2.980607748031616,-0.19893798232078552,0.851944625377655
1788893107188286500,5.101286376953125,-2.9198875427246094,-0.13715268671512604,0.5653886795043945
1788893107198308900,5.111308837890625,-2.803773880004883,-0.07856319099664688,0.31505173444747925
1788893107208331500,5.12133154296875,-2.6354622840881348,-0.024234747514128685,0.10519478470087051
1788893107218354700,5.131354736328125,-2.4277358055114746,0.031158961355686188,-0.07057371735572815
1788893107228377900,5.1413779296875,-2.1901819705963135,0.07803056389093399,-0.22610220313072205
1788893107238401000,5.151401123046875,-1.9291924238204956,0.1153147891163826,-0.3635212182998657
1788893107248429800,5.161429931640625,-1.6575502157211304,0.14940322935581207,-0.4881570637226105
1788893107258446000,5.171446044921875,-1.3763206005096436,0.17070849239826202,-0.6021402478218079
1788893107268462600,5.181462646484375,-1.0716552734375,0.1675127148628235,-0.7001445293426514
1788893107278479400,5.191479248046875,-0.7297055721282959,0.14727269113063812,-0.7757782340049744
1788893107288496600,5.20149658203125,-0.34514543414115906,0.11957584321498871,-0.8173235058784485
1788893107298514700,5.2115146484375,0.07882951200008392,0.08974846452474594,-0.8119972348213196
1788893107308533500,5.221533447265625,0.5081307291984558,0.029028434306383133,-0.7608645558357239
1788893107318553000,5.231552978515625,0.905474066734314,-0.0966726765036583,-0.6639255881309509
1788893107328573700,5.24157373046875,1.2165310382843018,-0.3257043659687042,-0.5222455263137817
1788893107338594800,5.2515947265625,1.4199963808059692,-0.6026729345321655,-0.32091066241264343
1788893107348617000,5.261616943359375,1.5169354677200317,-0.827443540096283,-0.024767380207777023
1788893107358639900,5.271639892578125,1.4402364492416382,-0.9829720258712769,0.3459443747997284
1788893107368663300,5.281663330078125,1.1451584100723267,-1.0852373838424683,0.6942855715751648
1788893107378687500,5.2916875,0.7115961313247681,-1.1129342317581177,0.9680583477020264
1788893107388711700,5.301711669921875,0.22690115869045258,-1.0639320611953735,1.1267826557159424
1788893107398736400,5.311736328125,-0.2354232668876648,-1.0032119750976562,1.1566100120544434
1788893107408761300,5.32176123046875,-0.6306360960006714,-0.9733846783638,1.0607362985610962
1788893107418785800,5.331785888671875,-0.9289098978042603,-0.9691236019134521,0.881771981716156
1788893107428807000,5.341806884765625,-1.1600720882415771,-0.9350351691246033,0.6420876383781433
1788893107438828300,5.351828369140625,-1.3049479722976685,-0.8391614556312561,0.36618438363075256
1788893107448846600,5.3618466796875,-1.368863821029663,-0.6644582152366638,0.09347688406705856
1788893107458865400,5.371865478515625,-1.3837774991989136,-0.4311654567718506,-0.15686006844043732
1788893107468884500,5.381884521484375,-1.3347753286361694,-0.15419691801071167,-0.3731085956096649
1788893107478903800,5.39190380859375,-1.2207921743392944,0.14194637537002563,-0.5659213066101074
1788893107488923600,5.401923583984375,-1.094025731086731,0.42317599058151245,-0.7512772083282471
1788893107498943700,5.41194384765625,-0.9651288390159607,0.6735129356384277,-0.945155143737793
1788893107508964600,5.421964599609375,-0.8266445994377136,0.8865656852722168,-1.1422289609909058
1788893107518985700,5.43198583984375,-0.665789783000946,1.0261151790618896,-1.342498540878296
1788893107529007400,5.44200732421875,-0.48682549595832825,1.0857700109481812,-1.5566165447235107
1788893107539029500,5.452029541015625,-0.28975170850753784,1.0879005193710327,-1.7877787351608276
1788893107549052000,5.462052001953125,-0.07350318878889084,1.0783131122589111,-2.016810417175293
1788893107559074800,5.47207470703125,0.15446323156356812,1.0644646883010864,-2.2128188610076904
1788893107569097700,5.48209765625,0.3962780833244324,1.031441569328308,-2.3608906269073486
1788893107579121000,5.492120849609375,0.641288697719574,0.945155143737793,-2.4514379501342773
1788893107589144300,5.502144287109375,0.9097351431846619,0.7342329621315002,-2.4844610691070557
1788893107599172900,5.5121728515625,1.2144005298614502,0.40932756662368774,-2.447176933288574
1788893107609189000,5.522189208984375,1.55741548538208,-0.03701791167259216,-2.2756693363189697
1788893107619205600,5.53220556640625,1.9132134914398193,-0.5419528484344482,-1.917740821838379
1788893107629222400,5.542222412109375,2.1901819705963135,-1.041561484336853,-1.3808480501174927
1788893107639240000,5.552239990234375,2.331862211227417,-1.418664813041687,-0.6926876902580261
1788893107649257700,5.5622578125,2.3084263801574707,-1.5912375450134277,0.09028109163045883
1788893107659276500,5.572276611328125,2.0559587478637695,-1.619999647140503,0.8583361506462097
1788893107669296400,5.58229638671875,1.5936343669891357,-1.5986944437026978,1.5017554759979248
1788893107679316700,5.592316650390625,0.997086763381958,-1.52306067943573,1.9406440258026123
1788893107689338000,5.602338134765625,0.3568633198738098,-1.4069468975067139,2.1835241317749023
1788893107699360300,5.6123603515625,-0.2833601236343384,-1.2737890481948853,2.253831624984741
1788893107709383200,5.622383056640625,-0.8713856339454651,-1.1470226049423218,2.1686105728149414
1788893107719406600,5.632406494140625,-1.344362735748291,-1.03730046749115,1.954492449760437
1788893107729430500,5.642430419921875,-1.6937692165374756,-0.9126646518707275,1.644500732421875
1788893107739455000,5.652455078125,-1.9110829830169678,-0.7763108611106873,1.2897679805755615
1788893107749479700,5.662479736328125,-1.999499797821045,-0.6442182064056396,0.9414267539978027
1788893107759504400,5.67250439453125,-1.9867167472839355,-0.5281044244766235,0.6090644598007202
1788893107769528800,5.68252880859375,-1.9014955759048462,-0.41518649458885193,0.29694223403930664
1788893107779550200,5.69255029296875,-1.7598155736923218,-0.29161593317985535,0.01784316636621952
1788893107789568500,5.702568603515625,-1.5733944177627563,-0.17337165772914886,-0.23142851889133453
1788893107799587300,5.71258740234375,-1.3507542610168457,-0.08602003753185272,-0.43808966875076294
1788893107809606400,5.7226064453125,-1.1004173755645752,-0.002929474925622344,-0.592552900314331
1788893107819625700,5.732625732421875,-0.8372972011566162,0.10466215014457703,-0.6926876902580261
1788893107829645600,5.7426455078125,-0.5635244846343994,0.2569948434829712,-0.7406245470046997
1788893107839665700,5.752665771484375,-0.2684464454650879,0.47111284732818604,-0.7502118945121765
1788893107849686500,5.7626865234375,0.03195790946483612,0.7118624448776245,-0.7597993016242981
1788893107859707600,5.772707763671875,0.30892646312713623,0.9121319651603699,-0.8056056499481201
1788893107869729300,5.782729248046875,0.5603286623954773,0.9973530769348145,-0.8801741003990173
1788893107879751400,5.79275146484375,0.77870774269104,0.9366330504417419,-0.9664604663848877
1788893107889773800,5.80277392578125,0.9917604327201843,0.7640603184700012,-1.016527771949768
1788893107899796700,5.812796630859375,1.1888341903686523,0.49348339438438416,-0.9920267462730408
1788893107909819600,5.822819580078125,1.344362735748291,0.13555480539798737,-0.8737825155258179
1788893107919842800,5.8328427734375,1.4434322118759155,-0.2468748539686203,-0.6383592486381531
1788893107929866200,5.8428662109375,1.4626070261001587,-0.5270391702651978,-0.27723485231399536
1788893107939894800,5.852894775390625,1.3582111597061157,-0.601607620716095,0.18402428925037384
1788893107949911000,5.8629111328125,1.125983715057373,-0.4737760126590729,0.7049382328987122
1788893107959927600,5.872927490234375,0.7808382511138916,-0.1808284968137741,1.2024163007736206
1788893107969944300,5.8829443359375,0.3460775315761566,0.10839057713747025,1.5611438751220703
1788893107979961600,5.892961669921875,-0.17803218960762024,0.3278348743915558,1.733716607093811
1788893107989979400,5.9029794921875,-0.6978808641433716,0.49827706813812256,1.7731313705444336
1788893107999998200,5.912998291015625,-1.136769413948059,0.5909550189971924,1.7347818613052368
1788893108010017800,5.923017822265625,-1.479784369468689,0.563258171081543,1.625059723854065
1788893108020038400,5.933038330078125,-1.7343823909759521,0.45140546560287476,1.490836501121521
1788893108030059800,5.943059814453125,-1.8888455629348755,0.35659700632095337,1.366200566291809
1788893108040082000,5.95308203125,-1.935717225074768,0.32676962018013,1.2564784288406372
1788893108050104800,5.963104736328125,-1.8749971389770508,0.35233595967292786,1.1531479358673096
1788893108060128300,5.973128173828125,-1.71733820438385,0.4460791349411011,1.0444910526275635
1788893108070152400,5.98315234375,-1.5010895729064941,0.5696497559547424,0.909202516078949
1788893108080177000,5.993177001953125,-1.2635358572006226,0.7155908346176147,0.7281076908111572
1788893108090201900,6.003201904296875,-1.0100030899047852,0.8498140573501587,0.5075981020927429
1788893108100226800,6.013226806640625,-0.7575356364250183,0.9467530846595764,0.25193485617637634
1788893108110250800,6.023250732421875,-0.5263733863830566,1.0159951448440552,-0.02396843209862709
1788893108120272100,6.033272216796875,-0.3207775056362152,1.0692583322525024,-0.29880645871162415
1788893108130290400,6.04329052734375,-0.15246586501598358,1.1044120788574219,-0.5534044504165649
1788893108140309200,6.053309326171875,-0.02463422156870365,1.1257174015045166,-0.7803056240081787
1788893108150328300,6.063328369140625,0.06697845458984375,1.1480878591537476,-0.9624657034873962
1788893108160347600,6.07334765625,0.13622058928012848,1.1576752662658691,-1.081775188446045
1788893108170367500,6.083367431640625,0.20333220064640045,1.1278479099273682,-1.1329078674316406
1788893108180387600,6.0933876953125,0.24700801074504852,1.0330394506454468,-1.123320460319519
1788893108190408400,6.103408447265625,0.26511749625205994,0.8242477178573608,-1.0530130863189697
1788893108200429600,6.1134296875,0.27470487356185913,0.4641886353492737,-0.8889625072479248
1788893108210451200,6.123451171875,0.2587259113788605,0.048735812306404114,-0.5842971205711365
1788893108220473300,6.133473388671875,0.17457008361816406,-0.31451907753944397,-0.14434322714805603
1788893108230495700,6.143495849609375,0.004127896390855312,-0.568051815032959,0.39254966378211975
1788893108240518400,6.153518310546875,-0.2323606312274933,-0.680969774723053,0.9645962119102478
1788893108250541600,6.16354150390625,-0.5050681233406067,-0.6777740120887756,1.5089459419250488
1788893108260564700,6.173564697265625,-0.8044071793556213,-0.6032055616378784,1.9286597967147827
1788893108270588000,6.183587890625,-1.106942057609558,-0.5701823830604553,2.1608872413635254
1788893108280616700,6.19361669921875,-1.3764537572860718,-0.5819002389907837,2.2141504287719727
1788893108290633000,6.203633056640625,-1.5788538455963135,-0.6000097393989563,2.119342088699341
1788893108300649500,6.2136494140625,-1.7045550346374512,-0.6095971465110779,1.9158766269683838
1788893108310666200,6.223666259765625,-1.7429044246673584,-0.6149234175682068,1.6335817575454712
1788893108320683500,6.23368359375,-1.6832497119903564,-0.6127929091453552,1.2937626838684082
1788893108330701600,6.24370166015625,-1.5309170484542847,-0.5872265696525574,0.9081372618675232
1788893108340720400,6.253720458984375,-1.345561146736145,-0.5573992133140564,0.49161916971206665
1788893108350740000,6.263739990234375,-1.1261168718338013,-0.5350286364555359,0.08149266988039017
1788893108360760300,6.27376025390625,-0.8725841045379639,-0.5190497040748596,-0.287088543176651
1788893108370781700,6.28378173828125,-0.5956155061721802,-0.508397102355957,-0.6141244769096375
1788893108380803800,6.293803955078125,-0.302668035030365,-0.49987494945526123,-0.900680422782898
1788893108390826500,6.303826416015625,0.011584741994738579,-0.49348339438438416,-1.1329078674316406
1788893108400850000,6.313849853515625,0.35353437066078186,-0.4689823091030121,-1.3054805994033813
1788893108410874000,6.3238740234375,0.715723991394043,-0.42317599058151245,-1.4120069742202759
1788893108420898600,6.333898681640625,1.0651304721832275,-0.3592601716518402,-1.4642049074172974
1788893108430923300,6.34392333984375,1.380448579788208,-0.31451907753944397,-1.4737921953201294
1788893108440948000,6.353947998046875,1.6382423639297485,-0.35819488763809204,-1.4439648389816284
1788893108450972700,6.36397265625,1.8374465703964233,-0.5254412889480591,-1.361939549446106
1788893108460994000,6.373994140625,1.9642130136489868,-0.7523424625396729,-1.2117373943328857
1788893108471015200,6.38401513671875,1.987648844718933,-0.9334372878074646,-0.9944236278533936
1788893108481033700,6.39403369140625,1.8821877241134644,-1.0399636030197144,-0.7089329361915588
1788893108491052300,6.40405224609375,1.6606128215789795,-1.0591384172439575,-0.3680485785007477
1788893108501071400,6.4140712890625,1.3516863584518433,-1.0005488395690918,0.006924213841557503
1788893108511090700,6.424090576171875,1.0044105052947998,-0.8503466844558716,0.3573959469795227
1788893108521110500,6.434110595703125,0.664591372013092,-0.6458160877227783,0.5970802903175354
1788893108531131000,6.444130859375,0.3567301630973816,-0.48496127128601074,0.6972150802612305
1788893108541151500,6.4541513671875,0.13409006595611572,-0.416784405708313,0.6791055798530579
1788893108551172600,6.464172607421875,0.009454214945435524,-0.3784348964691162,0.5640571117401123
1788893108561194200,6.4741943359375,0.005193160381168127,-0.37736964225769043,0.3755054473876953
1788893108571216400,6.48421630859375,0.12237215787172318,-0.46578651666641235,0.15180006623268127
1788893108581238800,6.49423876953125,0.30772802233695984,-0.6106624007225037,-0.05592634156346321
1788893108591261700,6.50426171875,0.4877575933933258,-0.7097318768501282,-0.20612850785255432
1788893108601284600,6.51428466796875,0.6134586930274963,-0.7299718856811523,-0.2743053734302521
1788893108611307800,6.524307861328125,0.6581997871398926,-0.5861613154411316,-0.276435911655426
1788893108621331200,6.534331298828125,0.6368945240974426,-0.29534435272216797,-0.2444780021905899
1788893108631359700,6.54435986328125,0.5761744976043701,0.011451584286987782,-0.24234747886657715
1788893108641376000,6.5543759765625,0.47603967785835266,0.2287653684616089,-0.33715593814849854
1788893108651392500,6.564392578125,0.34501224756240845,0.3651190996170044,-0.5171855092048645
1788893108661409300,6.5744091796875,0.1639174371957779,0.4066644012928009,-0.7323687672615051
1788893108671426600,6.584426513671875,-0.07896266877651215,0.3683148920536041,-0.9539436101913452
1788893108681444600,6.594444580078125,-0.3207775056362152,0.2884201407432556,-1.1744531393051147
1788893108691463200,6.604463134765625,-0.537026047706604,0.1957421898841858,-1.3843101263046265
1788893108701482800,6.614482666015625,-0.734099805355072,0.09454214572906494,-1.554752230644226
1788893108711503400,6.62450341796875,-0.8917587995529175,-0.02583264373242855,-1.647430181503296
1788893108721524700,6.634524658203125,-0.9876325726509094,-0.14194637537002563,-1.642103910446167
1788893108731547000,6.644546875,-1.0100030899047852,-0.25379905104637146,-1.5398385524749756
1788893108741569800,6.65456982421875,-0.943956732749939,-0.40506649017333984,-1.3587437868118286
1788893108751593500,6.664593505859375,-0.7958850860595703,-0.5765739679336548,-1.0977542400360107
1788893108761617400,6.674617431640625,-0.6009418368339539,-0.7470161318778992,-0.7568697929382324
1788893108771642000,6.68464208984375,-0.39428070187568665,-0.906805694103241,-0.34993910789489746
1788893108781666800,6.694666748046875,-0.1982721984386444,-1.036767840385437,0.10492847114801407
1788893108791691800,6.70469189453125,-0.02463422156870365,-1.1305110454559326,0.577905535697937
1788893108801716000,6.714716064453125,0.11491531878709793,-1.205079436302185,1.009337306022644
1788893108811737000,6.724737060546875,0.19267955422401428,-1.2956268787384033,1.3416996002197266
1788893108821755600,6.734755615234375,0.2203764170408249,-1.4042837619781494,1.5654048919677734
1788893108831774200,6.744774169921875,0.196940615773201,-1.4990922212600708,1.69643235206604
1788893108841793300,6.754793212890625,0.1394163817167282,-1.5683343410491943,1.7422386407852173
1788893108851812600,6.7648125,0.07763108611106873,-1.6162712574005127,1.7070850133895874
1788893108861832400,6.77483251953125,0.025433169677853584,-1.6365113258361816,1.5952322483062744
1788893108871852800,6.784852783203125,-0.018242640420794487,-1.5992270708084106,1.4322469234466553
1788893108881873400,6.794873291015625,-0.051265813410282135,-1.498026967048645,1.2415647506713867
1788893108891894500,6.80489453125,-0.059787921607494354,-1.359542727470398,1.0370341539382935
1788893108901916200,6.814916259765625,-0.035286858677864075,-1.1976226568222046,0.8154593110084534
1788893108911938300,6.824938232421875,0.03502054139971733,-1.0154625177383423,0.577905535697937
1788893108921960700,6.834960693359375,0.14367742836475372,-0.8205193281173706,0.32650330662727356
1788893108931983600,6.844983642578125,0.2821617126464844,-0.6021402478218079,0.07723161578178406
1788893108942006500,6.855006591796875,0.43769019842147827,-0.349672794342041,-0.16564849019050598
1788893108952029700,6.86502978515625,0.6070671081542969,-0.08335687965154648,-0.4127896726131439
1788893108962053000,6.87505322265625,0.7839008569717407,0.1712411344051361,-0.67484450340271
1788893108972081700,6.88508154296875,0.9809746742248535,0.3842938542366028,-0.9358341097831726
1788893108982098200,6.89509814453125,1.1993536949157715,0.534496009349823,-1.1755183935165405
1788893108992114700,6.90511474609375,1.423059105873108,0.601607620716095,-1.369396448135376
1788893109002131500,6.91513134765625,1.6371771097183228,0.601607620716095,-1.50361967086792
1788893109012149000,6.92514892578125,1.821467638015747,0.571780264377594,-1.5845797061920166
1788893109022166800,6.935166748046875,1.96847403049469,0.4950812757015228,-1.6112112998962402
1788893109032185600,6.945185546875,2.064347743988037,0.3970770239830017,-1.5792533159255981
1788893109042205200,6.955205078125,2.089914083480835,0.30546435713768005,-1.4791185855865479
1788893109052225500,6.9652255859375,2.035585641860962,0.2372874766588211,-1.3182637691497803
1788893109062247000,6.975246826171875,1.8981666564941406,0.22237378358840942,-1.113733172416687
1788893109072269000,6.98526904296875,1.688309669494629,0.2649843394756317,-0.8921582698822021
1788893109082291700,6.995291748046875,1.4251896142959595,0.34274858236312866,-0.6854971647262573
1788893109092315400,7.0053154296875,1.1269158124923706,0.3747064769268036,-0.5118591785430908
1788893109102339300,7.01533935546875,0.7785745859146118,0.3502054214477539,-0.38402754068374634
1788893109112363800,7.02536376953125,0.42064598202705383,0.2990727722644806,-0.27110961079597473
1788893109122388500,7.035388427734375,0.11385004967451096,0.22450430691242218,-0.1464737504720688
1788893109132413200,7.0454130859375,-0.14607428014278412,0.138217955827713,-0.006924213841557503
1788893109142438000,7.05543798828125,-0.35699647665023804,0.08921582996845245,0.15606112778186798
1788893109152459300,7.065459228515625,-0.49761128425598145,0.09773793816566467,0.34035173058509827
1788893109162477600,7.0754775390625,-0.5817670822143555,0.148870587348938,0.5214465260505676
1788893109172496400,7.085496337890625,-0.5977460741996765,0.22024326026439667,0.6514087319374084
1788893109182515500,7.095515380859375,-0.5412870645523071,0.2852243483066559,0.6918887495994568
1788893109192534800,7.10553466796875,-0.44008705019950867,0.3502054214477539,0.6524739861488342
1788893109202554600,7.1155546875,-0.32397329807281494,0.43329599499702454,0.5427518486976624
1788893109212574700,7.12557470703125,-0.19614167511463165,0.5227781534194946,0.37337490916252136
1788893109222595600,7.135595703125,-0.06298371404409409,0.5877591967582703,0.1592569202184677
1788893109232616700,7.14561669921875,0.07123950868844986,0.626108705997467,-0.08362319320440292
1788893109242638300,7.155638427734375,0.18309219181537628,0.6303697824478149,-0.3563306927680969
1788893109252660500,7.165660400390625,0.26511749625205994,0.5707150101661682,-0.6141244769096375
1788893109262683000,7.175682861328125,0.3055975139141083,0.4546012580394745,-0.8048067092895508
1788893109272705500,7.18570556640625,0.2992059290409088,0.3075948655605316,-0.9113330245018005
1788893109282728700,7.195728759765625,0.24913853406906128,0.14034847915172577,-0.9305077791213989
1788893109292752000,7.205751953125,0.19054903090000153,-0.07376950979232788,-0.8474172353744507
1788893109302775000,7.215775146484375,0.11278478801250458,-0.30067065358161926,-0.662061333656311
1788893109312803800,7.225803955078125,-0.0033289489801973104,-0.5062665343284607,-0.3850927948951721
1788893109322820400,7.2358203125,-0.14607428014278412,-0.6468813419342041,-0.020772641524672508
1788893109332836900,7.2458369140625,-0.2973417043685913,-0.6990792751312256,0.39787596464157104
1788893109342854000,7.25585400390625,-0.4336954653263092,-0.7044056057929993,0.8133288025856018
1788893109352871400,7.265871337890625,-0.5572660565376282,-0.7065361142158508,1.1744531393051147
1788893109362889500,7.275889404296875,-0.6467481851577759,-0.7491466403007507,1.4098764657974243
1788893109372908300,7.285908203125,-0.6904240250587463,-0.8428898453712463,1.5121417045593262
1788893109382928000,7.295927978515625,-0.7085334658622742,-0.9281109571456909,1.515337586402893
1788893109392948500,7.305948486328125,-0.6978808641433716,-1.0048099756240845,1.4301164150238037
1788893109402969900,7.315969970703125,-0.658466100692749,-1.066595196723938,1.2511521577835083
1788893109412991700,7.32599169921875,-0.5711144804954529,-1.116662621498108,1.0082720518112183
1788893109423014700,7.3360146484375,-0.4336954653263092,-1.153946876525879,0.7270424365997314
1788893109433038000,7.3460380859375,-0.25686168670654297,-1.170991063117981,0.41705071926116943
1788893109443062000,7.35606201171875,-0.05446160212159157,-1.170991063117981,0.09108003973960876
1788893109453086500,7.36608642578125,0.16604797542095184,-1.1624689102172852,-0.23382537066936493
1788893109463111200,7.376111083984375,0.4046670198440552,-1.150750994682312,-0.5363602638244629
1788893109473135900,7.386135986328125,0.6677871346473694,-1.1326415538787842,-0.7973498106002808
1788893109483160300,7.396160400390625,0.9532778263092041,-1.103879451751709,-1.026381492614746
1788893109493181400,7.406181396484375,1.2408989667892456,-1.0815088748931885,-1.2202595472335815
1788893109503200000,7.416199951171875,1.5210633277893066,-1.0633994340896606,-1.3800489902496338
1788893109513218800,7.42621875,1.7905750274658203,-1.053812026977539,-1.5089459419250488
1788893109523238000,7.43623779296875,2.040911912918091,-1.0633994340896606,-1.6186680793762207
1788893109533257200,7.44625732421875,2.2656826972961426,-1.0889657735824585,-1.70388925075531
1788893109543277000,7.456277099609375,2.457430124282837,-1.1102709770202637,-1.7571523189544678
1788893109553297200,7.466297119140625,2.606566905975342,-1.13370680809021,-1.776327133178711
1788893109563318000,7.476318115234375,2.7035059928894043,-1.1773825883865356,-1.7646092176437378
1788893109573339100,7.486339111328125,2.7471816539764404,-1.238102674484253,-1.7251944541931152
1788893109583360800,7.49636083984375,2.7429206371307373,-1.3009532690048218,-1.6655397415161133
1788893109593383000,7.5063828125,2.6981797218322754,-1.3765869140625,-1.5962976217269897
1788893109603405300,7.5164052734375,2.6172196865081787,-1.4820480346679688,-1.5185333490371704
1788893109613428200,7.52642822265625,2.5128238201141357,-1.615206003189087,-1.4428995847702026
1788893109623451100,7.536451171875,2.3956446647644043,-1.7504944801330566,-1.3779184818267822
1788893109633474300,7.546474365234375,2.2859225273132324,-1.875130295753479,-1.326785922050476
1788893109643497700,7.556497802734375,2.2017667293548584,-1.9933745861053467,-1.2809795141220093
1788893109653526300,7.5665263671875,2.163417339324951,-2.1030967235565186,-1.2319773435592651
1788893109663542800,7.576542724609375,2.169808864593506,-2.1925787925720215,-1.1669963598251343
1788893109673559600,7.5865595703125,2.2113542556762695,-2.2532989978790283,-1.0828404426574707
1788893109683576600,7.59657666015625,2.282726764678955,-2.2905831336975098,-0.9827057123184204
1788893109693594000,7.606593994140625,2.381796360015869,-2.3033664226531982,-0.8857667446136475
1788893109703612200,7.616612060546875,2.5032362937927246,-2.2980399131774902,-0.8080024719238281
1788893109713631200,7.62663134765625,2.6491775512695312,-2.2980399131774902,-0.7621961236000061
1788893109723650800,7.63665087890625,2.795118570327759,-2.3310632705688477,-0.7728487849235535
1788893109733671400,7.64667138671875,2.9261460304260254,-2.377934694290161,-0.833568811416626
1788893109743692800,7.65669287109375,3.031607151031494,-2.403501033782959,-0.9326383471488953
1788893109753715000,7.66671484375,3.0944576263427734,-2.402435779571533,-1.0679267644882202
1788893109763737900,7.67673779296875,3.1093714237213135,-2.3715431690216064,-1.2255858182907104
1788893109773761300,7.68676123046875,3.0742177963256836,-2.3065621852874756,-1.386440634727478
1788893109783785200,7.69678515625,2.993257761001587,-2.204296827316284,-1.533447027206421
1788893109793809700,7.7068095703125,2.868621826171875,-2.066877841949463,-1.654887080192566
1788893109803834400,7.71683447265625,2.7173542976379395,-1.9134798049926758,-1.7518260478973389
1788893109813859000,7.726859130859375,2.556499481201172,-1.7579513788223267,-1.817872405052185
1788893109823883000,7.736883056640625,2.403101682662964,-1.6002923250198364,-1.8519608974456787
1788893109833904000,7.746904052734375,2.2763352394104004,-1.4543511867523193,-1.8498302698135376
1788893109843922700,7.756922607421875,2.179396152496338,-1.3243889808654785,-1.8168071508407593
1788893109853941500,7.76694140625,2.1122846603393555,-1.208275318145752,-1.7518260478973389
1788893109863960600,7.776960693359375,2.070739269256592,-1.116662621498108,-1.671931266784668
1788893109873980000,7.78697998046875,2.0377161502838135,-1.0623341798782349,-1.5899059772491455
1788893109883999700,7.796999755859375,2.0036277770996094,-1.0431593656539917,-1.5014890432357788
1788893109894020000,7.80702001953125,1.9588866233825684,-1.0484857559204102,-1.4141374826431274
1788893109904040700,7.817040771484375,1.8981666564941406,-1.0708563327789307,-1.3310469388961792
1788893109914061800,7.827061767578125,1.8204023838043213,-1.1155973672866821,-1.252217411994934
1788893109924083500,7.83708349609375,1.7341160774230957,-1.1677953004837036,-1.173387885093689
1788893109934105600,7.847105712890625,1.6371771097183228,-1.2114710807800293,-1.0966888666152954
1788893109944128300,7.857128173828125,1.524259090423584,-1.2370374202728271,-1.0189247131347656
1788893109954151000,7.86715087890625,1.3996232748031616,-1.2444941997528076,-0.9454214572906494
1788893109964174000,7.877174072265625,1.2739222049713135,-1.238102674484253,-0.8804404139518738
1788893109974197200,7.887197265625,1.1460905075073242,-1.2146668434143066,-0.8282424807548523
1788893109984220700,7.897220703125,1.0342378616333008,-1.1699258089065552,-0.7888277173042297
1788893109994249500,7.90724951171875,0.9447556734085083,-1.1230541467666626,-0.7760445475578308
1788893110004265700,7.917265625,0.88297039270401,-1.0804436206817627,-0.7856319546699524
1788893110014282200,7.9272822265625,0.8467514514923096,-1.0346373319625854,-0.812263548374176
1788893110024299300,7.93729931640625,0.8339682817459106,-0.9813741445541382,-0.8559393286705017
1788893110034316800,7.94731689453125,0.8414251208305359,-0.9185235500335693,-0.9145288467407227
1788893110044334800,7.9573349609375,0.8669914603233337,-0.8322372436523438,-0.9773793816566467
1788893110054353700,7.967353759765625,0.9010798931121826,-0.7289066314697266,-1.0370341539382935
1788893110064373200,7.977373291015625,0.9479514956474304,-0.6287718415260315,-1.0753836631774902
1788893110074393600,7.9873935546875,1.0044105052947998,-0.5520728826522827,-1.0732531547546387
1788893110084415000,7.9974150390625,1.0619347095489502,-0.5115928649902344,-1.0114678144454956
1788893110094437000,8.00743701171875,1.10454523563385,-0.5094623565673828,-0.8921582698822021
1788893110104460000,8.0174599609375,1.1183936595916748,-0.559529721736908,-0.7323687672615051
1788893110114483500,8.0274833984375,1.1205241680145264,-0.6447508335113525,-0.5310339331626892
1788893110124507400,8.03750732421875,1.10454523563385,-0.7214497923851013,-0.29348012804985046
1788893110134531800,8.04753173828125,1.0321073532104492,-0.7502118945121765,-0.04740423336625099
1788893110144556500,8.057556640625,0.8904272317886353,-0.7118624448776245,0.16245271265506744
1788893110154581500,8.06758154296875,0.6784397959709167,-0.6415550112724304,0.31158962845802307
1788893110164606000,8.07760595703125,0.4131891429424286,-0.559529721736908,0.400006502866745
1788893110174627300,8.08762744140625,0.13409006595611572,-0.47004759311676025,0.4468781054019928
1788893110184648400,8.0976484375,-0.14500901103019714,-0.37630438804626465,0.46285703778266907
1788893110194667000,8.1076669921875,-0.40280282497406006,-0.2601906359195709,0.4511391520500183
1788893110204685800,8.117685791015624,-0.6094639897346497,-0.12170637398958206,0.4223770201206207
1788893110214705000,8.127704833984374,-0.7500787377357483,0.013582111336290836,0.3818970024585724
1788893110224724200,8.13772412109375,-0.8278430104255676,0.12117373943328857,0.33609068393707275
1788893110234744000,8.147744140625,-0.8448871970176697,0.19467693567276,0.28389275074005127
1788893110244764400,8.157764404296875,-0.8033419251441956,0.23835274577140808,0.211454838514328
1788893110254785000,8.167784912109376,-0.7213166356086731,0.2522011697292328,0.10066741704940796
1788893110264806400,8.177806396484375,-0.6307692527770996,0.28202855587005615,-0.04420844092965126
1788893110274828000,8.187828125,-0.5402218103408813,0.36298859119415283,-0.21252009272575378
1788893110284850200,8.19785009765625,-0.4539354741573334,0.48868969082832336,-0.4032022953033447
1788893110294872600,8.20787255859375,-0.3633880615234375,0.6356960535049438,-0.6173202991485596
1788893110304895500,8.2178955078125,-0.2547311782836914,0.768854022026062,-0.8410256505012512
1788893110314918400,8.22791845703125,-0.11837742477655411,0.8540751338005066,-1.0572742223739624
1788893110324941800,8.23794189453125,0.05952160432934761,0.873249888420105,-1.2500869035720825
1788893110334965000,8.247965087890625,0.27470487356185913,0.827443540096283,-1.3981585502624512
1788893110344993800,8.257993896484376,0.5090628862380981,0.7198519110679626,-1.4865753650665283
1788893110355010300,8.26801025390625,0.7391598224639893,0.5973466038703918,-1.4940322637557983
1788893110365026800,8.27802685546875,0.950082004070282,0.4716454744338989,-1.4077459573745728
1788893110375043800,8.2880439453125,1.1365031003952026,0.3555317521095276,-1.2309120893478394
1788893110385061000,8.29806103515625,1.2973579168319702,0.251135915517807,-0.9784446358680725
1788893110395079200,8.3080791015625,1.4187979698181152,0.13715268671512604,-0.6673876643180847
1788893110405098000,8.318097900390624,1.4731264114379883,-0.001331579522229731,-0.31265488266944885
1788893110415117600,8.32811767578125,1.4582127332687378,-0.15153375267982483,0.0655137151479721
1788893110425138200,8.33813818359375,1.365534782409668,-0.2889527678489685,0.4245075583457947
1788893110435159600,8.34815966796875,1.2036147117614746,-0.4114580750465393,0.699345588684082
1788893110445181700,8.358181640625,0.9724525213241577,-0.5542033910751343,0.8644614219665527
1788893110455204400,8.368204345703125,0.7103977203369141,-0.6980140209197998,0.9326383471488953
1788893110465228000,8.37822802734375,0.451538622379303,-0.7960182428359985,0.9113330245018005
1788893110475252000,8.388251953125,0.20439745485782623,-0.8524772524833679,0.8048067092895508
1788893110485276400,8.3982763671875,0.011584741994738579,-0.8727172613143921,0.6269076466560364
1788893110495301400,8.40830126953125,-0.09813741594552994,-0.8578035235404968,0.3914843797683716
1788893110505326000,8.418326171875,-0.13009531795978546,-0.7981488108634949,0.11451584100723267
1788893110515350800,8.428350830078125,-0.09281109273433685,-0.705470860004425,-0.1837579756975174
1788893110525372000,8.438371826171876,0.010519478470087051,-0.5808349847793579,-0.49588021636009216
1788893110535393300,8.448393310546875,0.16498270630836487,-0.4306328296661377,-0.825046718120575
1788893110545411800,8.458411865234375,0.3609912097454071,-0.27403905987739563,-1.1691268682479858
1788893110555430700,8.4684306640625,0.5900229215621948,-0.12596742808818817,-1.5259901285171509
1788893110565449700,8.47844970703125,0.8329030275344849,0.008255792781710625,-1.892440915107727
1788893110575469000,8.488468994140625,1.0768483877182007,0.12223900109529495,-2.256761074066162
1788893110585489000,8.498489013671875,1.3069453239440918,0.20213377475738525,-2.61042857170105
1788893110595509200,8.50850927734375,1.518932819366455,0.2277000993490219,-2.9438560009002686
1788893110605529900,8.51852978515625,1.7085497379302979,0.1627190262079239,-3.2463910579681396
1788893110615551200,8.52855126953125,1.876861333847046,0.014647374860942364,-3.488205909729004
1788893110625572900,8.53857275390625,2.0515646934509277,-0.18242639303207397,-3.6394731998443604
1788893110635595000,8.548594970703125,2.2305288314819336,-0.4199801981449127,-3.685279607772827
1788893110645617700,8.55861767578125,2.381796360015869,-0.7384940385818481,-3.630951166152954
1788893110655640300,8.568640380859375,2.467017412185669,-1.1219888925552368,-3.4647700786590576
1788893110665663500,8.57866357421875,2.4936490058898926,-1.5193322896957397,-3.155843496322632
1788893110675686700,8.588686767578125,2.4339942932128906,-1.8314545154571533,-2.7073676586151123
1788893110685710000,8.5987099609375,2.2560951709747314,-2.030658721923828,-2.1544957160949707
1788893110695739000,8.60873876953125,1.9738004207611084,-2.106292486190796,-1.524924874305725
1788893110705755100,8.618755126953126,1.6062843799591064,-2.042376756668091,-0.8580698370933533
1788893110715771600,8.628771728515625,1.1705915927886963,-1.8612818717956543,-0.21571588516235352
1788893110725788400,8.638788330078125,0.6880271434783936,-1.6045533418655396,0.30732855200767517
1788893110735806000,8.648805908203125,0.22250694036483765,-1.371260643005371,0.6695181727409363
1788893110745824000,8.658823974609374,-0.16844481229782104,-1.1933616399765015,0.8996151685714722
1788893110755842800,8.6688427734375,-0.4986765384674072,-1.0516815185546875,1.014663577079773
1788893110765862400,8.6788623046875,-0.7245124578475952,-0.9355677962303162,1.039164662361145
1788893110775883000,8.688883056640625,-0.8321040868759155,-0.8439550995826721,0.9827057123184204
1788893110785904000,8.698904052734376,-0.8480830192565918,-0.7928224802017212,0.8697877526283264
1788893110795926300,8.70892626953125,-0.7703187465667725,-0.7843003273010254,0.7323687672615051
1788893110805949200,8.71894921875,-0.6179860830307007,-0.7597993016242981,0.5747097134590149
1788893110815972900,8.728972900390625,-0.4251733422279358,-0.7523424625396729,0.40213701128959656
1788893110825997000,8.7389970703125,-0.20146799087524414,-0.7576687932014465,0.22849905490875244
1788893110836021500,8.749021484375,0.03821633383631706,-0.7661908864974976,0.0655137151479721
1788893110846046200,8.759046142578125,0.3002711832523346,-0.7448856234550476,-0.07829687744379044
1788893110856071200,8.7690712890625,0.610262930393219,-0.6532729268074036,-0.1837579756975174
1788893110866095900,8.779095947265626,0.9426251649856567,-0.5105276107788086,-0.26684853434562683
1788893110876117000,8.789116943359375,1.2675305604934692,-0.4071970283985138,-0.34993910789489746
1788893110886135600,8.799135498046875,1.5647391080856323,-0.49348339438438416,-0.42557281255722046
1788893110896154400,8.809154296875,1.787379264831543,-0.7150582075119019,-0.4415517747402191
1788893110906173400,8.81917333984375,1.901362419128418,-1.0048099756240845,-0.3659180700778961
1788893110916192800,8.82919287109375,1.896036148071289,-1.2391679286956787,-0.2263685166835785
1788893110926212600,8.839212646484375,1.767139196395874,-1.3254542350769043,-0.03249054029583931
1788893110936233000,8.84923291015625,1.548760175704956,-1.2572773694992065,0.1933453530073166
1788893110946253800,8.85925390625,1.2824442386627197,-1.0676604509353638,0.38722333312034607
1788893110956275000,8.86927490234375,1.0044105052947998,-0.8673909306526184,0.475640207529068
1788893110966296600,8.879296630859375,0.7135934829711914,-0.6862961053848267,0.44474756717681885
1788893110976318700,8.889318603515624,0.4366249442100525,-0.5339633822441101,0.332894891500473
1788893110986341400,8.89934130859375,0.20013640820980072,-0.44128546118736267,0.16351796686649323
1788893110996364000,8.909364013671874,0.014780532568693161,-0.3933486044406891,-0.061252661049366
1788893111006387200,8.91938720703125,-0.13435637950897217,-0.35393384099006653,-0.3286338448524475
1788893111016410400,8.929410400390625,-0.2408827394247055,-0.2900180220603943,-0.5960150361061096
1788893111026433800,8.939433837890626,-0.3069290816783905,-0.20373167097568512,-0.8676572442054749
1788893111036462600,8.949462646484376,-0.3495396375656128,-0.11744531989097595,-1.1329078674316406
1788893111046479000,8.95947900390625,-0.3719101548194885,-0.02583264373242855,-1.3875058889389038
1788893111056495600,8.96949560546875,-0.3719101548194885,0.08282424509525299,-1.6207985877990723
1788893111066512600,8.9795126953125,-0.33675646781921387,0.18935060501098633,-1.8242639303207397
1788893111076530200,8.9895302734375,-0.2323606312274933,0.23835274577140808,-1.9787272214889526
1788893111086548200,8.99954833984375,-0.026764748618006706,0.20213377475738525,-2.057556629180908
1788893111096567000,9.009567138671875,0.28855329751968384,0.03169159218668938,-2.0373167991638184
1788893111106586600,9.019586669921875,0.6763092279434204,-0.2793653905391693,-1.9116156101226807
1788893111116607200,9.029607177734375,1.0406293869018555,-0.6937529444694519,-1.6484954357147217
1788893111126628600,9.039628662109376,1.305880069732666,-1.1795132160186768,-1.2543479204177856
1788893111136650800,9.049650634765625,1.4241243600845337,-1.6546207666397095,-0.7888277173042297
1788893111146673700,9.059673583984376,1.3708611726760864,-2.0327892303466797,-0.287088543176651
1788893111156697000,9.069697021484375,1.1578084230422974,-2.2522337436676025,0.2167811542749405
1788893111166721000,9.079720947265624,0.7945535182952881,-2.2905831336975098,0.6279729008674622
1788893111176745500,9.089745361328125,0.3812312185764313,-2.1137492656707764,0.8293077349662781
1788893111186770200,9.099770263671875,0.024367906153202057,-1.820801854133606,0.8293077349662781
1788893111196795100,9.109795166015624,-0.2515353858470917,-1.4958964586257935,0.6950845122337341
1788893111206819800,9.11981982421875,-0.4379565119743347,-1.1795132160186768,0.464987576007843
1788893111216841000,9.129841064453124,-0.5295692086219788,-0.8844351172447205,0.14966954290866852
1788893111226859800,9.13985986328125,-0.5231776237487793,-0.6085318326950073,-0.21891167759895325
1788893111236878600,9.149878662109375,-0.4379565119743347,-0.36671701073646545,-0.6173202991485596
1788893111246897400,9.1598974609375,-0.2930806577205658,-0.19307903945446014,-1.0253162384033203
1788893111256917000,9.1699169921875,-0.11518163233995438,-0.09614004194736481,-1.4056153297424316
1788893111266936800,9.179936767578125,0.0786963477730751,-0.02263685315847397,-1.7294554710388184
1788893111276957200,9.189957275390626,0.27896592020988464,0.05193160101771355,-1.9734009504318237
1788893111286977800,9.199977783203124,0.49947547912597656,0.11904320865869522,-2.1150810718536377
1788893111296999200,9.209999267578125,0.7082671523094177,0.18935060501098633,-2.1715400218963623
1788893111307020800,9.220020751953125,0.8978840708732605,0.26285380125045776,-2.157691478729248
1788893111317043000,9.23004296875,1.0640652179718018,0.31611698865890503,-2.0703399181365967
1788893111327065600,9.240065673828125,1.1705915927886963,0.3416832983493805,-1.9297250509262085
1788893111337088300,9.250088134765624,1.2281157970428467,0.3470096290111542,-1.743303894996643
1788893111347111400,9.260111328125,1.238768458366394,0.33316120505332947,-1.5270553827285767
1788893111357134600,9.270134521484374,1.201484203338623,0.29161593317985535,-1.2958931922912598
1788893111367158000,9.280157958984375,1.1215894222259521,0.20532956719398499,-1.0487520694732666
1788893111377186800,9.290186767578126,1.0097367763519287,0.07004108279943466,-0.7824361324310303
1788893111387203000,9.300203125,0.8701872229576111,-0.09294424951076508,-0.510793924331665
1788893111397219800,9.3102197265625,0.6922882199287415,-0.23036326467990875,-0.2348906397819519
1788893111407236900,9.32023681640625,0.4920186400413513,-0.32091066241264343,0.03994738683104515
1788893111417254100,9.330254150390624,0.27790066599845886,-0.38163068890571594,0.3051980435848236
1788893111427272400,9.3402724609375,0.05632581561803818,-0.40080544352531433,0.5427518486976624
1788893111437291300,9.350291259765624,-0.15779218077659607,-0.3795001804828644,0.7440866827964783
1788893111447310800,9.360310791015625,-0.34314805269241333,-0.3230412006378174,0.909202516078949
1788893111457331500,9.37033154296875,-0.4848281145095825,-0.2324937880039215,1.039164662361145
1788893111467352800,9.380352783203126,-0.5785713195800781,-0.09720530360937119,1.1339731216430664
1788893111477375000,9.390375,-0.6414218544960022,0.08069372177124023,1.1925626993179321
1788893111487398000,9.40039794921875,-0.6616618633270264,0.261788547039032,1.2213248014450073
1788893111497421300,9.41042138671875,-0.6488786935806274,0.4343612492084503,1.205345869064331
1788893111507445200,9.4204453125,-0.6350302696228027,0.5600623488426208,1.1456910371780396
1788893111517469700,9.4304697265625,-0.6158555150032043,0.5962813496589661,1.072187900543213
1788893111527494400,9.440494384765625,-0.5764408111572266,0.5589970946311951,1.0072067975997925
1788893111537519000,9.45051904296875,-0.5487439036369324,0.5089297294616699,0.9645962119102478
1788893111547544000,9.4605439453125,-0.5231776237487793,0.48016759753227234,0.9539436101913452
1788893111557565200,9.470565185546874,-0.48695865273475647,0.48868969082832336,0.9784446358680725
1788893111567586600,9.480586669921875,-0.45606598258018494,0.5355613231658936,1.022120475769043
1788893111577608000,9.49060791015625,-0.44008705019950867,0.626108705997467,1.0551435947418213
1788893111587626500,9.50062646484375,-0.43689125776290894,0.7411571741104126,1.034903645515442
1788893111597645000,9.51064501953125,-0.44008705019950867,0.8455530405044556,0.9528783559799194
1788893111607664000,9.5206640625,-0.4475438892841339,0.9307740926742554,0.8197203874588013
1788893111617683700,9.53068359375,-0.46991443634033203,1.0159951448440552,0.6407560706138611
1788893111627703600,9.54070361328125,-0.4944154918193817,1.1022815704345703,0.4234423041343689
1788893111637724000,9.550723876953125,-0.5103944540023804,1.1672626733779907,0.1837579756975174
1788893111647744500,9.56074462890625,-0.5253081321716309,1.2109384536743164,-0.058056868612766266
1788893111657766000,9.570765869140626,-0.5338302254676819,1.2215911149978638,-0.2785664498806
1788893111667787500,9.58078759765625,-0.5253081321716309,1.1875026226043701,-0.45433494448661804
1788893111677809700,9.5908095703125,-0.499741792678833,1.1225215196609497,-0.5629918575286865
1788893111687832300,9.600832275390625,-0.45073968172073364,1.0351699590682983,-0.5938844680786133
1788893111697855000,9.61085498046875,-0.3996070325374603,0.9414267539978027,-0.5459476113319397
1788893111707878100,9.620878173828125,-0.35593122243881226,0.8721846342086792,-0.4234423041343689
1788893111717901600,9.630901611328126,-0.31332066655158997,0.8466182947158813,-0.2540653645992279
1788893111727925000,9.640925048828125,-0.28455856442451477,0.8849677443504333,-0.07403582334518433
1788893111737953800,9.650953857421875,-0.2781669795513153,0.9797762632369995,0.0708400309085846
1788893111747970000,9.660969970703125,-0.2984069883823395,1.0500836372375488,0.1368863731622696
1788893111757986600,9.670986572265624,-0.32823434472084045,1.0926941633224487,0.10492847114801407
1788893111768003300,9.68100341796875,-0.3410175144672394,1.1001510620117188,-0.0015978955198079348
1788893111778020900,9.691020751953126,-0.32290804386138916,1.031974196434021,-0.16351796686649323
1788893111788039000,9.701038818359375,-0.28136277198791504,0.8050730228424072,-0.3616569936275482
1788893111798057700,9.7110576171875,-0.23555642366409302,0.38962018489837646,-0.5416865348815918
1788893111808077300,9.721077392578126,-0.20146799087524414,-0.08868319541215897,-0.6247771382331848
1788893111818098000,9.731097900390624,-0.18122798204421997,-0.5318328738212585,-0.577905535697937
1788893111828119300,9.741119384765625,-0.1897500902414322,-0.8034750819206238,-0.41065913438796997
1788893111838141400,9.751141357421876,-0.24301326274871826,-0.9100014567375183,-0.14966954290866852
1788893111848164400,9.761164306640625,-0.33356067538261414,-0.8950877785682678,0.17736639082431793
1788893111858188000,9.77118798828125,-0.46458810567855835,-0.7640603184700012,0.5182507634162903
1788893111868212200,9.781212158203125,-0.6073334217071533,-0.5659213066101074,0.825046718120575
1788893111878236700,9.791236572265625,-0.7564703226089478,-0.3880222737789154,1.0434256792068481
1788893111888261400,9.801261474609374,-0.9056072235107422,-0.26871275901794434,1.1520826816558838
1788893111898286300,9.811286376953126,-1.0249167680740356,-0.21331904828548431,1.1691268682479858
1788893111908311000,9.82131103515625,-1.1016157865524292,-0.19840535521507263,1.1105372905731201
1788893111918332200,9.831332275390626,-1.1239862442016602,-0.22503694891929626,0.9880320429801941
1788893111928350700,9.841350830078126,-1.0973546504974365,-0.26764747500419617,0.8175898194313049
1788893111938369500,9.85136962890625,-1.0238515138626099,-0.27297380566596985,0.6247771382331848
1788893111948388600,9.861388671875,-0.8981503844261169,-0.21544957160949707,0.41172438859939575
1788893111958408200,9.871408203125,-0.7074682116508484,-0.09507478028535843,0.1741705983877182
1788893111968428000,9.881427978515624,-0.4518049359321594,0.048735812306404114,-0.09108003973960876
1788893111978448400,9.891448486328125,-0.15459638833999634,0.1712411344051361,-0.36911386251449585
1788893111988469000,9.901468994140625,0.17563533782958984,0.23196116089820862,-0.6311687231063843
1788893111998490400,9.911490478515624,0.5538039207458496,0.27670222520828247,-0.8932235836982727
1788893112008512000,9.921511962890625,0.9479514956474304,0.2649843394756317,-1.1765836477279663
1788893112018534100,9.9315341796875,1.3378379344940186,0.10519478470087051,-1.4183984994888306
1788893112028556500,9.941556640625,1.6733959913253784,-0.15472954511642456,-1.5526217222213745
1788893112038579500,9.951579345703125,1.9205372333526611,-0.4114580750465393,-1.5856449604034424
1788893112048602600,9.9616025390625,2.070739269256592,-0.6394245028495789,-1.537708044052124
1788893112058625800,9.971625732421876,2.105893135070801,-0.810931921005249,-1.4269206523895264
1788893112068649200,9.981649169921875,2.0185413360595703,-0.8918919563293457,-1.2532826662063599
1788893112078677800,9.991677734375,1.8385119438171387,-0.8673909306526184,-1.0338383913040161
1788893112088694500,10.001694580078125,1.611610770225525,-0.7363634705543518,-0.8111982345581055
1788893112098711000,10.0117109375,1.3761874437332153,-0.5499423742294312,-0.6418213248252869
1788893112108728300,10.021728271484376,1.1514167785644531,-0.3560643792152405,-0.5384907722473145
1788893112118745900,10.031745849609376,0.9628651738166809,-0.17390428483486176,-0.5012065172195435
1788893112128764200,10.04176416015625,0.837164044380188,-0.036485280841588974,-0.5203812718391418
1788893112138783000,10.051782958984376,0.7775092720985413,0.05086633935570717,-0.5821665525436401
1788893112148802800,10.061802734375,0.7391598224639893,0.10199899226427078,-0.6737792491912842
1788893112158823400,10.071823486328125,0.7082671523094177,0.1339569091796875,-0.7685877084732056
1788893112168844800,10.0818447265625,0.6741787195205688,0.1765674501657486,-0.842090904712677
1788893112178867000,10.091866943359374,0.5996102690696716,0.270310640335083,-0.8953540921211243
1788893112188889900,10.101889892578125,0.497344970703125,0.4119907021522522,-0.9368993639945984
1788893112198913300,10.111913330078124,0.3748396337032318,0.563258171081543,-0.976314127445221
1788893112208937500,10.1219375,0.24487747251987457,0.7006771564483643,-1.009337306022644
1788893112218962000,10.1319619140625,0.11811110377311707,0.8050730228424072,-1.034903645515442
1788893112228986400,10.141986328125,0.016911059617996216,0.8700540661811829,-1.0626004934310913
1788893112239011300,10.15201123046875,-0.048070020973682404,0.8966856598854065,-1.0956236124038696
1788893112249035300,10.16203515625,-0.047004759311676025,0.8849677443504333,-1.1318426132202148
1788893112259056600,10.172056640625,0.0019973693415522575,0.835965633392334,-1.1755183935165405
1788893112269075200,10.1820751953125,0.08402267098426819,0.760331928730011,-1.2319773435592651
1788893112279094000,10.192093994140626,0.20865851640701294,0.6697844862937927,-1.3001543283462524
1788893112289113000,10.202113037109376,0.4036017656326294,0.5206475853919983,-1.3779184818267822
1788893112299132400,10.21213232421875,0.6880271434783936,0.24367906153202057,-1.4599437713623047
1788893112309152300,10.22215234375,1.0438252687454224,-0.1344895362854004,-1.5110764503479004
1788893112319172600,10.232172607421875,1.4305158853530884,-0.6074665784835815,-1.487640619277954
1788893112329193500,10.242193359375,1.7639434337615967,-1.1720563173294067,-1.3747227191925049
1788893112339214600,10.252214599609376,1.9961708784103394,-1.7345155477523804,-1.148886799812317
1788893112349236500,10.262236572265625,1.998301386833191,-2.156359910964966,-0.8197203874588013
1788893112359258600,10.272258544921876,1.7010928392410278,-2.3853917121887207,-0.4330296814441681
1788893112369281000,10.282281005859375,1.1780483722686768,-2.437589645385742,-0.013315795920789242
1788893112379304000,10.292303955078125,0.5303681492805481,-2.328932523727417,0.3755054473876953
1788893112389326800,10.302326904296875,-0.15885743498802185,-2.0445072650909424,0.65353924036026
1788893112399350000,10.31235009765625,-0.7692534923553467,-1.5683343410491943,0.7568697929382324
1788893112409373400,10.32237353515625,-1.21666419506073,-1.0783131122589111,0.7419561147689819
1788893112419402200,10.33240234375,-1.5106769800186157,-0.6873613595962524,0.6301034688949585
1788893112429418800,10.342418701171875,-1.6704665422439575,-0.39441385865211487,0.4511391520500183
1788893112439435500,10.352435546875,-1.6949676275253296,-0.16325165331363678,0.2348906397819519
1788893112449452800,10.362452880859376,-1.6129423379898071,0.028495801612734795,0.0015978955198079348
1788893112459470300,10.37247021484375,-1.4542180299758911,0.16591481864452362,-0.22849905490875244
1788893112469488400,10.38248828125,-1.2347737550735474,0.2937464416027069,-0.4852275848388672
1788893112479507200,10.392507080078126,-0.9950894117355347,0.3981422781944275,-0.766457200050354
1788893112489527000,10.402527099609374,-0.7436871528625488,0.45140546560287476,-1.0317078828811646
1788893112499547600,10.412547607421875,-0.4954807460308075,0.47484126687049866,-1.2564784288406372
1788893112509568800,10.42256884765625,-0.2589922249317169,0.47910231351852417,-1.4492912292480469
1788893112519591000,10.4325908203125,-0.04167843982577324,0.4716454744338989,-1.6154723167419434
1788893112529613800,10.44261376953125,0.15539532899856567,0.46099284291267395,-1.758217692375183
1788893112539637200,10.45263720703125,0.3226417303085327,0.450340211391449,-1.8700703382492065
1788893112549661400,10.462661376953125,0.47603967785835266,0.40346860885620117,-1.9510303735733032
1788893112559686000,10.472685791015625,0.6411555409431458,0.27350643277168274,-1.9915103912353516
1788893112569710600,10.482710693359374,0.8350335359573364,0.03488738462328911,-1.9840534925460815
1788893112579735300,10.4927353515625,1.0619347095489502,-0.30067065358161926,-1.9116156101226807
1788893112589759700,10.502759765625,1.3069453239440918,-0.6852308511734009,-1.7603482007980347
1788893112599781000,10.512781005859376,1.5434339046478271,-1.0655299425125122,-1.520663857460022
1788893112609799700,10.522799560546876,1.7138760089874268,-1.3946964740753174,-1.193627953529358
1788893112619818500,10.532818603515626,1.750095009803772,-1.615206003189087,-0.7781751155853271
1788893112629837600,10.542837646484376,1.5998928546905518,-1.6215975284576416,-0.29028433561325073
1788893112639857000,10.55285693359375,1.251551628112793,-1.396826982498169,0.23915168642997742
1788893112649876700,10.562876708984374,0.7391598224639893,-1.0048099756240845,0.7462171912193298
1788893112659897000,10.57289697265625,0.13835111260414124,-0.5531381368637085,1.1712573766708374
1788893112669918000,10.58291796875,-0.4720449447631836,-0.1291632205247879,1.483379602432251
1788893112679939000,10.59293896484375,-1.005742073059082,0.2426137924194336,1.679388165473938
1788893112689961000,10.6029609375,-1.4030853509902954,0.5419528484344482,1.7827186584472656
1788893112699983000,10.612983154296876,-1.6757928133010864,0.7102645039558411,1.813611388206482
1788893112710005500,10.623005615234375,-1.8046897649765015,0.7273087501525879,1.7837839126586914
1788893112720028400,10.6330283203125,-1.814277172088623,0.6325002908706665,1.7081502676010132
1788893112730051300,10.64305126953125,-1.7450350522994995,0.44288337230682373,1.6090806722640991
1788893112740074500,10.653074462890626,-1.6150728464126587,0.270310640335083,1.49616277217865
1788893112750098000,10.663097900390625,-1.4680664539337158,0.11265163123607635,1.3928321599960327
1788893112760126700,10.673126708984375,-1.3199948072433472,-0.001331579522229731,1.3012195825576782
1788893112770143200,10.683143310546875,-1.1783146858215332,-0.03968106955289841,1.214933156967163
1788893112780160000,10.693159912109374,-1.0568746328353882,0.016777902841567993,1.136103630065918
1788893112790177300,10.70317724609375,-0.9620662331581116,0.13502216339111328,1.0508825778961182
1788893112800194800,10.71319482421875,-0.8917587995529175,0.27670222520828247,0.9400951862335205
1788893112810212900,10.723212890625,-0.8406261801719666,0.41305598616600037,0.7973498106002808
1788893112820231700,10.733231689453126,-0.7990809082984924,0.5281044244766235,0.6290381550788879
1788893112830251500,10.74325146484375,-0.7543398141860962,0.6250434517860413,0.4372907280921936
1788893112840272100,10.753272216796875,-0.6978808641433716,0.7102645039558411,0.22849905490875244
1788893112850293200,10.763293212890625,-0.6243776679039001,0.7848330140113831,0.01438105944544077
1788893112860315400,10.7733154296875,-0.5338302254676819,0.8466182947158813,-0.20293273031711578
1788893112870338300,10.78333837890625,-0.4198470413684845,0.890294075012207,-0.4181159734725952
1788893112880361700,10.79336181640625,-0.28455856442451477,0.9105340838432312,-0.6290381550788879
1788893112890386000,10.803385986328125,-0.12263847887516022,0.8913593292236328,-0.8346340656280518
1788893112900410400,10.813410400390625,0.08402267098426819,0.7880287766456604,-1.0274467468261719
1788893112910435000,10.82343505859375,0.3514038324356079,0.5792371034622192,-1.1787142753601074
1788893112920459800,10.833459716796876,0.6901576519012451,0.25965800881385803,-1.2426300048828125
1788893112930484200,10.843484130859375,1.062999963760376,-0.16538217663764954,-1.1819100379943848
1788893112940505600,10.853505615234376,1.4017537832260132,-0.7033402919769287,-0.9912278056144714
1788893112950524200,10.863524169921876,1.6222633123397827,-1.2391679286956787,-0.6428865790367126
1788893112960542700,10.873542724609376,1.6595475673675537,-1.6759259700775146,-0.13049480319023132
1788893112970561800,10.883561767578126,1.4880400896072388,-1.9379808902740479,0.4894886314868927
1788893112980581400,10.893581298828124,1.1194589138031006,-2.0136146545410156,1.123320460319519
1788893112990601200,10.903601318359375,0.5836313366889954,-1.9401113986968994,1.701758623123169
1788893113000621300,10.913621337890625,-0.042743705213069916,-1.723862886428833,2.1161463260650635
1788893113010642200,10.92364208984375,-0.658466100692749,-1.4223933219909668,2.3547651767730713
1788893113020663600,10.93366357421875,-1.199620008468628,-1.1177278757095337,2.4389212131500244
1788893113030685200,10.943685302734375,-1.6672707796096802,-0.839694082736969,2.3899190425872803
1788893113040707600,10.95370751953125,-2.032656192779541,-0.6095971465110779,2.242912530899048
1788893113050730000,10.96372998046875,-2.275536298751831,-0.4391549229621887,2.033055543899536
1788893113060753000,10.9737529296875,-2.3660836219787598,-0.29534435272216797,1.7752618789672852
1788893113070776000,10.983776123046875,-2.306428909301758,-0.14727269113063812,1.4503564834594727
1788893113080799200,10.99379931640625,-2.127464532852173,-0.016245270147919655,1.063665747642517
1788893113090822700,11.00382275390625,-1.8749971389770508,0.07962846010923386,0.6546044945716858
1788893113100851500,11.0138515625,-1.5788538455963135,0.15952323377132416,0.25193485617637634
1788893113110867700,11.02386767578125,-1.2731232643127441,0.2330264151096344,-0.13262532651424408
1788893113120884200,11.03388427734375,-0.9716535806655884,0.30546435713768005,-0.4980107545852661
1788893113130901000,11.04390087890625,-0.6787061095237732,0.37151068449020386,-0.8484824895858765
1788893113140918500,11.05391845703125,-0.3996070325374603,0.4109254479408264,-1.180844783782959
1788893113150936300,11.063936279296875,-0.14500901103019714,0.4173170328140259,-1.4748575687408447
1788893113160955100,11.073955078125,0.08934898674488068,0.41412124037742615,-1.7188029289245605
1788893113170975000,11.08397509765625,0.3141196072101593,0.4119907021522522,-1.9116156101226807
1788893113180995300,11.093995361328124,0.5538039207458496,0.39068543910980225,-2.057556629180908
1788893113191016700,11.1040166015625,0.8169240355491638,0.3544664680957794,-2.153430461883545
1788893113201039000,11.1140390625,1.1013494729995728,0.31611698865890503,-2.198171615600586
1788893113211062000,11.12406201171875,1.3985580205917358,0.25859275460243225,-2.1939103603363037
1788893113221085700,11.134085693359374,1.7085497379302979,0.15952323377132416,-2.1353209018707275
1788893113231110000,11.14410986328125,2.02599835395813,0.007190529722720385,-2.008554697036743
1788893113241134600,11.154134521484375,2.3093583583831787,-0.18668745458126068,-1.8242639303207397
1788893113251159600,11.16415966796875,2.5096280574798584,-0.40932756662368774,-1.5845797061920166
1788893113261184500,11.1741845703125,2.6023058891296387,-0.6745781898498535,-1.2863059043884277
1788893113271208700,11.184208740234375,2.5841963291168213,-0.9494162201881409,-0.9326383471488953
1788893113281230000,11.19422998046875,2.4158847332000732,-1.195492148399353,-0.5512739419937134
1788893113291251500,11.20425146484375,2.1122846603393555,-1.4000227451324463,-0.15819165110588074
1788893113301270000,11.21427001953125,1.6893749237060547,-1.5374417304992676,0.21891167759895325
1788893113311288800,11.224288818359375,1.176983118057251,-1.5683343410491943,0.5310339331626892
1788893113321308000,11.234307861328125,0.6241113543510437,-1.475656509399414,0.7472824454307556
1788893113331327200,11.2443271484375,0.12237215787172318,-1.296692132949829,0.8655267357826233
1788893113341347000,11.25434716796875,-0.22916483879089355,-1.111336350440979,0.9017456769943237
1788893113351367400,11.264367431640625,-0.4283691346645355,-0.9643298983573914,0.8815056681632996
1788893113361388300,11.27438818359375,-0.4848281145095825,-0.8450203537940979,0.8356993198394775
1788893113371409400,11.284409423828125,-0.43156492710113525,-0.7672561407089233,0.7952193021774292
1788893113381431300,11.294431396484375,-0.2685796022415161,-0.7171887755393982,0.7675224542617798
1788893113391453200,11.304453125,-0.023568958044052124,-0.7076013684272766,0.729172945022583
1788893113401475800,11.314475830078125,0.23635536432266235,-0.7470161318778992,0.6769750714302063
1788893113411498800,11.324498779296874,0.4653870463371277,-0.7715172171592712,0.6428865790367126
1788893113421521700,11.334521728515625,0.6464818716049194,-0.7246456146240234,0.6386255621910095
1788893113431544800,11.344544921875,0.740225076675415,-0.5989444851875305,0.6332992315292358
1788893113441568300,11.354568359375,0.7519429922103882,-0.42424124479293823,0.6013413071632385
1788893113451597000,11.36459716796875,0.7093324065208435,-0.24314641952514648,0.5299686789512634
1788893113461613600,11.374613525390625,0.6209155321121216,-0.06311687082052231,0.40639808773994446
1788893113471630600,11.384630615234375,0.5048018097877502,0.10839057713747025,0.23276010155677795
1788893113481647600,11.394647705078125,0.3886880576610565,0.2607232630252838,0.0282294861972332
1788893113491665200,11.4046650390625,0.30133646726608276,0.38535910844802856,-0.19867166876792908
1788893113501683500,11.414683349609374,0.2587259113788605,0.45992758870124817,-0.42663809657096863
1788893113511702500,11.42470263671875,0.2715090811252594,0.4780370593070984,-0.6524739861488342
1788893113521722000,11.43472216796875,0.3460775315761566,0.41944757103919983,-0.8687224984169006
1788893113531742700,11.44474267578125,0.48030075430870056,0.24794010818004608,-1.0604699850082397
1788893113541764000,11.45476416015625,0.6518082022666931,-0.031158961355686188,-1.2074763774871826
1788893113551786200,11.4647861328125,0.8254461884498596,-0.4338286221027374,-1.294827938079834
1788893113561809200,11.47480908203125,0.9969536066055298,-0.9494162201881409,-1.2958931922912598
1788893113571832800,11.484832763671875,1.1492862701416016,-1.4586122035980225,-1.2064111232757568
1788893113581856800,11.494856689453124,1.2632695436477661,-1.9102840423583984,-1.0317078828811646
1788893113591881200,11.504881103515626,1.3218590021133423,-2.2927136421203613,-0.7952193021774292
1788893113601906000,11.514906005859375,1.3250547647476196,-2.5803349018096924,-0.5257076025009155
1788893113611930600,11.5249306640625,1.281378984451294,-2.731602191925049,-0.2540653645992279
1788893113621954600,11.53495458984375,1.1908315420150757,-2.7539727687835693,-0.01438105944544077
1788893113631976000,11.544975830078124,1.0448905229568481,-2.6889917850494385,0.15606112778186798
1788893113641994500,11.554994384765624,0.8797746300697327,-2.561160087585449,0.23276010155677795
1788893113652013300,11.565013427734375,0.7263766527175903,-2.3726084232330322,0.211454838514328
1788893113662032400,11.575032470703125,0.5857618451118469,-2.1531641483306885,0.10173267871141434
1788893113672052000,11.585052001953125,0.4589954614639282,-1.9060230255126953,-0.08788424730300903
1788893113682071800,11.59507177734375,0.3705785870552063,-1.6365113258361816,-0.32756856083869934
1788893113692092000,11.605091796875,0.3375554084777832,-1.3574122190475464,-0.5938844680786133
1788893113702112800,11.61511279296875,0.3567301630973816,-1.0602036714553833,-0.879375159740448
1788893113712134100,11.625134033203125,0.40999335050582886,-0.7587340474128723,-1.177648901939392
1788893113722155800,11.63515576171875,0.48030075430870056,-0.4679170548915863,-1.4769880771636963
1788893113732178000,11.645177978515624,0.5601955056190491,-0.19414429366588593,-1.7518260478973389
1788893113742200300,11.655200439453125,0.6390250325202942,0.035952646285295486,-1.9776619672775269
1788893113752223200,11.66522314453125,0.7040061354637146,0.20746009051799774,-2.1417126655578613
1788893113762246400,11.675246337890625,0.7423555850982666,0.3416832983493805,-2.2535653114318848
1788893113772269600,11.68526953125,0.7721830010414124,0.4460791349411011,-2.3100242614746094
1788893113782292700,11.695292724609375,0.7913577556610107,0.5078644156455994,-2.287653684616089
1788893113792321500,11.705321533203126,0.798814594745636,0.5366265773773193,-2.202432632446289
1788893113802338300,11.71533837890625,0.7934882640838623,0.5483444333076477,-2.073535680770874
1788893113812355000,11.72535498046875,0.7870966792106628,0.5579318404197693,-1.9180071353912354
1788893113822372000,11.7353720703125,0.7817703485488892,0.5760413408279419,-1.7614134550094604
1788893113832390000,11.745389892578125,0.7860314249992371,0.580302357673645,-1.6154723167419434
1788893113842408000,11.755407958984375,0.7956187725067139,0.5185170769691467,-1.4919017553329468
1788893113852427000,11.765427001953125,0.8211851119995117,0.39920756220817566,-1.3832448720932007
1788893113862446800,11.77544677734375,0.8669914603233337,0.2564622163772583,-1.2692615985870361
1788893113872467200,11.78546728515625,0.9127978086471558,0.12330426275730133,-1.1403647661209106
1788893113882488800,11.79548876953125,0.9543430805206299,0.007190529722720385,-1.009337306022644
1788893113892511000,11.805510986328125,1.0225199460983276,-0.03435475379228592,-0.8708530068397522
1788893113902534000,11.815533935546876,1.080044150352478,0.008255792781710625,-0.7344992756843567
1788893113912557300,11.825557373046875,1.092827320098877,0.110521100461483,-0.6205160617828369
1788893113922581500,11.83558154296875,1.0821746587753296,0.2191779911518097,-0.5363602638244629
1788893113932606000,11.84560595703125,1.0811094045639038,0.28309381008148193,-0.475640207529068
1788893113942630400,11.85563037109375,1.0832399129867554,0.32996541261672974,-0.4468781054019928
1788893113952655400,11.8656552734375,1.0598042011260986,0.38642439246177673,-0.4319643974304199
1788893113962679300,11.87567919921875,1.0108020305633545,0.4258391261100769,-0.4053328037261963
1788893113972700700,11.88570068359375,0.9446225166320801,0.439687579870224,-0.35646384954452515
1788893113982719200,11.89571923828125,0.8711193203926086,0.44288337230682373,-0.279764860868454
1788893113992738000,11.905738037109375,0.7677887678146362,0.4631233811378479,-0.17430377006530762
1788893114002757000,11.915757080078125,0.6239781975746155,0.5281044244766235,-0.04647212475538254
1788893114012776400,11.9257763671875,0.450340211391449,0.6335655450820923,0.09946899116039276
1788893114022796300,11.93579638671875,0.2692453861236572,0.7592666745185852,0.24114905297756195
1788893114032816600,11.945816650390626,0.09347688406705856,0.8934898972511292,0.3572627902030945
1788893114042837200,11.955837158203124,-0.06737792491912842,1.0042773485183716,0.4360923171043396
1788893114052858600,11.965858642578125,-0.20266640186309814,1.074584722518921,0.48189863562583923
1788893114062880300,11.97588037109375,-0.31025803089141846,1.1012163162231445,0.5042691826820374
1788893114072902400,11.98590234375,-0.3890875577926636,1.066062569618225,0.5170523524284363
1788893114082925000,11.995925048828125,-0.435959130525589,0.9542099237442017,0.5287702679634094
1788893114092947700,12.00594775390625,-0.45193809270858765,0.7837677001953125,0.5511407852172852
1788893114102971000,12.015970947265625,-0.44235071539878845,0.593085527420044,0.598012387752533
1788893114112994000,12.025994140625,-0.4263717830181122,0.45673179626464844,0.6725808382034302
1788893114123017500,12.036017578125,-0.3986749053001404,0.36618438363075256,0.7556713819503784
1788893114133046300,12.04604638671875,-0.3656517565250397,0.2948117256164551,0.8238482475280762
1788893114143062800,12.056062744140625,-0.3368896245956421,0.21704746782779694,0.8696545958518982
1788893114153079600,12.06607958984375,-0.3304980397224426,0.08282424509525299,0.9111998677253723
1788893114163096800,12.076096923828125,-0.35819488763809204,-0.09720530360937119,0.9357009530067444
1788893114173114400,12.0861142578125,-0.406131774187088,-0.2655169665813446,0.9325051307678223
1788893114183132700,12.096132568359375,-0.4540686309337616,-0.3880222737789154,0.8973514437675476
1788893114193151500,12.1061513671875,-0.4956139028072357,-0.4679170548915863,0.8355661630630493
1788893114203171300,12.11617138671875,-0.5286371111869812,-0.5105276107788086,0.7386271953582764
1788893114213192000,12.12619189453125,-0.5755086541175842,-0.5275717973709106,0.5990776419639587
1788893114223213300,12.13621337890625,-0.6362286806106567,-0.5073317885398865,0.4169175624847412
1788893114233235500,12.1462353515625,-0.7076013684272766,-0.4444812536239624,0.20173430442810059
1788893114243258400,12.15625830078125,-0.785365641117096,-0.34860754013061523,-0.02516685426235199
1788893114253282000,12.166281982421875,-0.856738269329071,-0.22077588737010956,-0.25845959782600403
1788893114263306000,12.176305908203124,-0.9163930416107178,-0.08442214131355286,-0.4810996949672699
1788893114273330400,12.186330322265626,-0.9558078050613403,0.04767054691910744,-0.6898913383483887
1788893114283355100,12.196355224609375,-0.9813741445541382,0.17550218105316162,-0.8763124942779541
1788893114293379800,12.2063798828125,-0.9920267462730408,0.2788327634334564,-1.0499504804611206
1788893114303403800,12.21640380859375,-0.982439398765564,0.3512706756591797,-1.2076095342636108
1788893114313425200,12.226425048828125,-0.9526119828224182,0.393881231546402,-1.3492895364761353
1788893114323443700,12.236443603515625,-0.9004141092300415,0.39494648575782776,-1.4611421823501587
1788893114333462500,12.246462646484375,-0.8279761672019958,0.3608580529689789,-1.5431675910949707
1788893114343481600,12.256481689453125,-0.7310371994972229,0.30546435713768005,-1.5911043882369995
1788893114353501000,12.2665009765625,-0.5989444851875305,0.23196116089820862,-1.6038875579833984
1788893114363520800,12.276520751953125,-0.435959130525589,0.14141374826431274,-1.5793864727020264
1788893114373541000,12.286541015625,-0.2474074810743332,0.04340949282050133,-1.514405369758606
1788893114383562000,12.29656201171875,-0.04181159660220146,-0.06737792491912842,-1.424923300743103
1788893114393583000,12.3065830078125,0.19361166656017303,-0.1898832470178604,-1.3183969259262085
1788893114403605000,12.31660498046875,0.45992758870124817,-0.3454117476940155,-1.187369465827942
1788893114413627100,12.326627197265625,0.7347655892372131,-0.5691171288490295,-1.015861988067627
1788893114423649500,12.3366494140625,0.9914941191673279,-0.8460856676101685,-0.8038745522499084
1788893114433672400,12.34667236328125,1.217329978942871,-1.1347720623016357,-0.5641902685165405
1788893114443695400,12.3566953125,1.364336371421814,-1.3978922367095947,-0.3063964545726776
1788893114453718800,12.36671875,1.377119541168213,-1.6141407489776611,-0.03795001655817032
1788893114463742000,12.376741943359375,1.2407658100128174,-1.770734429359436,0.23156169056892395
1788893114473770800,12.386770751953126,0.9776456952095032,-1.8708692789077759,0.4733765423297882
1788893114483787500,12.39678759765625,0.6314350366592407,-1.9038923978805542,0.6555365920066833
1788893114493804300,12.40680419921875,0.2287653684616089,-1.852759838104248,0.7673892974853516
1788893114503821300,12.4168212890625,-0.18775272369384766,-1.7004270553588867,0.8227829933166504
1788893114513839000,12.426839111328125,-0.5275717973709106,-1.4532859325408936,0.8451535701751709
1788893114523857200,12.436857177734375,-0.7747129797935486,-1.1486204862594604,0.8483493328094482
1788893114533876200,12.446876220703125,-0.9078709483146667,-0.8546077609062195,0.8206524848937988
1788893114543895800,12.456895751953125,-0.9142625331878662,-0.5723128914833069,0.7524756193161011
1788893114553916400,12.46691650390625,-0.8119972348213196,-0.33902016282081604,0.6725808382034302
1788893114563937800,12.476937744140624,-0.6234455704689026,-0.20692746341228485,0.6044039726257324
1788893114573960200,12.486960205078125,-0.39974018931388855,-0.16431692242622375,0.5042691826820374
1788893114583983000,12.496983154296874,-0.17816534638404846,-0.2516685426235199,0.3743070065975189
1788893114594006500,12.507006591796875,0.025300011038780212,-0.39441385865211487,0.26991117000579834
1788893114604030700,12.51703076171875,0.1808284968137741,-0.5179844498634338,0.21238693594932556
1788893114614055000,12.527054931640626,0.27244117856025696,-0.5723128914833069,0.18149429559707642
1788893114624079600,12.53707958984375,0.3139864504337311,-0.5542033910751343,0.163384810090065
1788893114634104300,12.547104248046875,0.32037803530693054,-0.46578651666641235,0.14101427793502808
1788893114644128500,12.55712841796875,0.29268118739128113,-0.34328120946884155,0.0834900364279747
1788893114654149600,12.567149658203125,0.24794010818004608,-0.21651484072208405,-0.01771000772714615
1788893114664168200,12.577168212890625,0.2000032514333725,-0.09400951862335205,-0.1561942845582962
1788893114674187000,12.58718701171875,0.1573926955461502,0.019973693415522575,-0.31917962431907654
1788893114684206000,12.5972060546875,0.12330426275730133,0.11797794699668884,-0.49814391136169434
1788893114694225700,12.6072255859375,0.11371689289808273,0.19148114323616028,-0.7037398219108582
1788893114704245500,12.61724560546875,0.15419691801071167,0.23622220754623413,-0.9317061901092529
1788893114714265900,12.627265869140626,0.251135915517807,0.26285380125045776,-1.1681947708129883
1788893114724286500,12.637286376953124,0.4119907021522522,0.2745717167854309,-1.4014874696731567
1788893114734307800,12.647307861328125,0.6229129433631897,0.24794010818004608,-1.6124097108840942
